ACCELEROMETER X (m/s²),ACCELEROMETER Y (m/s²),ACCELEROMETER Z (m/s²),GRAVITY X (m/s²),GRAVITY Y (m/s²),GRAVITY Z (m/s²),GYROSCOPE X (rad/s),GYROSCOPE Y (rad/s),GYROSCOPE Z (rad/s),MAGNETIC FIELD X (μT),MAGNETIC FIELD Y (μT),MAGNETIC FIELD Z (μT),ORIENTATION Z (azimuth °),ORIENTATION X (pitch °),ORIENTATION Y (roll °),PROXIMITY (m),SOUND LEVEL (dB),LOCATION Latitude : ,LOCATION Longitude : ,LOCATION Altitude ( m),LOCATION Altitude-google ( m),LOCATION Speed ( m/s),LOCATION Accuracy ( m),LOCATION ORIENTATION (°),Satellites in range,Time since start in ms ,YYYY-MO-DD HH-MI-SS_SSS
-0.00958,0.89061,9.92329,-0.0071,0.82395,9.77197,-1.1E-4,-0.00168,1.7E-4,-3.531,17.502,-26.834,11.252,-4.82,0.042,5.0,61.5187,23.000332,120.219536,45.617,NaN,4.228,8.0,256.247,0 / 0,8,2021-03-23 20:03:28:890
0.0479,0.75888,9.75324,-0.00721,0.82733,9.77169,1.3E-4,-0.00203,-4.1E-4,-5.327,17.366,-29.122,14.522,-4.839,0.042,5.0,61.6396,23.000332,120.219536,45.617,NaN,4.228,8.0,256.247,0 / 0,109,2021-03-23 20:03:28:991
-0.02395,0.74451,9.69815,-0.00524,0.82528,9.77186,2.0E-5,-0.0017,-2.7E-4,-5.3,17.648,-30.566,13.722,-4.827,0.031,5.0,61.6396,23.000332,120.219536,45.617,NaN,4.228,8.0,256.247,0 / 0,210,2021-03-23 20:03:29:092
0.03353,0.82834,9.78677,-0.00358,0.82852,9.77159,-3.3E-4,-9.5E-4,5.0E-5,-4.613,17.852,-28.291,13.863,-4.846,0.021,5.0,61.6396,23.000332,120.219536,45.617,NaN,4.228,8.0,256.247,0 / 0,309,2021-03-23 20:03:29:191
-0.06227,0.92893,9.8203,-0.00189,0.82409,9.77196,4.6E-4,-0.00194,-5.2E-4,-5.59,17.266,-29.101,17.22,-4.82,0.011,5.0,62.4109,23.000332,120.219536,45.617,NaN,4.228,8.0,256.247,0 / 0,408,2021-03-23 20:03:29:290
0.0,0.80199,9.64786,-0.00742,0.82733,9.77169,2.3E-4,-0.00235,-2.8E-4,-5.225,18.406,-29.204,13.842,-4.839,0.044,5.0,62.4109,23.000332,120.219536,45.617,NaN,4.228,8.0,256.247,0 / 0,509,2021-03-23 20:03:29:391
-0.0024,0.71098,9.69097,-0.00418,0.82977,9.77148,1.0E-4,-0.00157,2.1E-4,-5.612,16.94,-28.725,17.225,-4.854,0.025,5.0,62.4109,23.000332,120.219536,45.617,NaN,4.228,8.0,256.247,0 / 0,608,2021-03-23 20:03:29:490
-0.0479,0.81157,9.61193,-0.00151,0.82456,9.77192,2.3E-4,-5.8E-4,-2.6E-4,-4.233,18.654,-29.865,10.573,-4.823,0.009,5.0,62.2613,23.000332,120.219536,45.617,NaN,4.228,8.0,256.247,0 / 0,709,2021-03-23 20:03:29:591
-0.00479,0.93612,9.94245,-0.00603,0.82743,9.77168,-3.7E-4,-0.00125,3.0E-4,-5.477,19.0,-29.189,13.209,-4.84,0.035,5.0,62.2613,23.000332,120.219536,45.617,NaN,4.228,8.0,256.247,0 / 0,808,2021-03-23 20:03:29:690
0.06467,0.86906,9.85862,-0.00971,0.83096,9.77138,-2.2E-4,-0.00249,-9.0E-5,-5.703,17.445,-29.088,17.267,-4.861,0.057,5.0,62.2613,23.000332,120.219536,45.617,NaN,4.228,8.0,256.247,0 / 0,909,2021-03-23 20:03:29:791
-0.02156,0.70619,9.64067,-0.00516,0.82793,9.77164,8.0E-4,-6.8E-4,-4.6E-4,-5.655,18.176,-27.48,16.569,-4.843,0.03,5.0,62.2613,23.000332,120.219536,45.617,NaN,4.228,8.0,256.247,0 / 0,1008,2021-03-23 20:03:29:890
0.02156,0.88822,9.69815,-0.00434,0.82406,9.77196,0.00146,-0.00126,-1.2E-4,-5.572,17.042,-30.111,17.171,-4.82,0.025,5.0,61.544,23.000332,120.219536,45.617,NaN,4.228,8.0,256.247,0 / 0,1108,2021-03-23 20:03:29:990
-0.0503,0.82834,9.75085,-0.00767,0.8388,9.77071,-0.0019,-8.8E-4,5.0E-5,-4.25,17.232,-29.199,11.704,-4.907,0.045,5.0,61.544,23.000332,120.219536,45.617,NaN,4.228,8.0,256.247,0 / 0,1208,2021-03-23 20:03:30:090
-0.00958,0.91456,9.82509,-0.00748,0.8296,9.7715,-5.1E-4,-0.00181,-1.2E-4,-4.967,17.189,-28.522,14.52,-4.853,0.044,5.0,61.544,23.000332,120.219536,45.617,NaN,4.228,8.0,256.247,0 / 0,1309,2021-03-23 20:03:30:191
0.01437,0.77086,9.71252,-0.00383,0.82546,9.77185,3.9E-4,-0.00104,1.2E-4,-6.279,18.239,-29.131,16.436,-4.829,0.022,5.0,61.6849,23.000332,120.219536,45.617,NaN,4.228,8.0,256.247,0 / 0,1409,2021-03-23 20:03:30:291
0.02395,0.70379,9.65504,-0.0092,0.82946,9.7715,-7.1E-4,-0.00199,2.3E-4,-4.265,17.512,-28.148,11.217,-4.852,0.054,5.0,61.6849,23.000332,120.219536,45.617,NaN,4.228,8.0,256.247,0 / 0,1508,2021-03-23 20:03:30:390
-0.00719,0.86427,9.9185,-0.00845,0.82938,9.77151,4.6E-4,-0.00232,-4.3E-4,-5.636,16.552,-28.748,17.261,-4.851,0.05,5.0,61.6849,23.000332,120.219536,45.617,NaN,4.228,8.0,256.247,0 / 0,1608,2021-03-23 20:03:30:490
0.01677,0.96486,9.94724,-0.00474,0.8223,9.77211,7.1E-4,-0.0017,-1.0E-4,-6.042,17.079,-29.476,17.247,-4.81,0.028,5.0,61.469,23.000332,120.219536,45.617,NaN,4.228,8.0,256.247,0 / 0,1709,2021-03-23 20:03:30:591
-0.02395,0.78762,9.64067,-0.00569,0.82877,9.77157,-3.3E-4,-0.00174,-1.1E-4,-5.971,18.637,-30.661,15.602,-4.848,0.033,5.0,61.469,23.000332,120.219536,45.617,NaN,4.228,8.0,256.247,0 / 0,1809,2021-03-23 20:03:30:691
-0.00719,0.73733,9.67899,-0.00562,0.82806,9.77163,-1.1E-4,-0.0015,-2.6E-4,-5.004,17.782,-28.564,13.826,-4.844,0.033,5.0,61.469,23.000332,120.219536,45.617,NaN,4.228,8.0,256.247,0 / 0,1909,2021-03-23 20:03:30:791
-0.06467,0.81876,9.63109,-0.00621,0.82733,9.77169,-2.2E-4,-0.00113,2.9E-4,-5.177,18.75,-28.88,13.21,-4.839,0.036,5.0,62.68,23.000332,120.219536,45.617,NaN,4.228,8.0,256.247,0 / 0,2009,2021-03-23 20:03:30:891
-0.06467,0.9433,9.81072,-0.00842,0.82811,9.77162,-5.5E-4,-0.00232,-1.3E-4,-5.662,17.041,-29.068,17.263,-4.844,0.049,5.0,62.68,23.000332,120.219536,45.617,NaN,4.228,8.0,256.247,0 / 0,2108,2021-03-23 20:03:30:990
0.10059,0.90738,9.81791,-0.00743,0.82434,9.77194,2.7E-4,-0.00172,3.4E-4,-4.685,17.196,-29.215,14.53,-4.822,0.044,5.0,62.68,23.000332,120.219536,45.617,NaN,4.228,8.0,256.247,0 / 0,2209,2021-03-23 20:03:31:091
-0.01916,0.70858,9.74845,-0.00281,0.83599,9.77095,-5.8E-4,-0.00101,-1.3E-4,-4.685,17.196,-29.215,14.53,-4.822,0.044,5.0,62.68,23.000332,120.219536,45.617,NaN,4.228,8.0,256.247,0 / 0,2309,2021-03-23 20:03:31:191
0.02395,0.79241,9.66223,-0.00845,0.83404,9.77112,-9.0E-5,-0.00193,3.0E-5,-4.125,18.996,-29.317,10.654,-4.879,0.05,5.0,62.7815,23.000332,120.219536,45.617,NaN,4.228,8.0,256.247,0 / 0,2409,2021-03-23 20:03:31:291
-0.02635,0.88103,9.9209,-0.00922,0.83152,9.77133,3.1E-4,-0.00223,4.0E-4,-6.26,17.244,-29.07,17.262,-4.864,0.054,5.0,62.7815,23.000332,120.219536,45.617,NaN,4.228,8.0,256.247,0 / 0,2509,2021-03-23 20:03:31:391
-0.06467,0.75409,9.67899,-0.00642,0.83141,9.77134,-1.8E-4,-0.00136,-3.5E-4,-5.122,18.15,-29.817,13.791,-4.852,0.048,5.0,62.7815,23.000332,120.219536,45.617,NaN,4.228,8.0,256.247,0 / 0,2609,2021-03-23 20:03:31:491
0.03593,0.8954,9.86341,-0.00301,0.82959,9.7715,-5.7E-4,-6.3E-4,9.0E-5,-4.285,17.995,-28.886,11.124,-4.853,0.018,5.0,62.6136,23.000332,120.219536,45.617,NaN,4.228,8.0,256.247,0 / 0,2708,2021-03-23 20:03:31:590
-0.02874,0.95049,10.01191,-0.00529,0.82873,9.77157,-2.0E-5,-0.00188,-2.3E-4,-4.422,18.177,-28.828,11.144,-4.848,0.031,5.0,62.6136,23.000332,120.219536,45.617,NaN,4.228,8.0,256.247,0 / 0,2809,2021-03-23 20:03:31:691
0.00239,0.75649,9.60714,-0.00996,0.83181,9.7713,-1.0E-4,-0.00149,-3.2E-4,-5.243,17.843,-28.459,13.906,-4.866,0.058,5.0,62.6136,23.000332,120.219536,45.617,NaN,4.228,8.0,256.247,0 / 0,2909,2021-03-23 20:03:31:791
-0.01916,0.70379,9.66941,-0.00577,0.8254,9.77185,2.8E-4,-0.00127,-4.0E-5,-6.393,16.23,-27.502,18.2,-4.828,0.034,5.0,62.0032,23.000332,120.219536,45.617,NaN,4.228,8.0,256.247,0 / 0,3010,2021-03-23 20:03:31:892
-0.04311,0.86187,9.6742,-0.00446,0.83108,9.77137,-3.4E-4,-0.00163,-1.3E-4,-5.028,18.03,-29.683,13.758,-4.861,0.026,5.0,62.0032,23.000332,120.219536,45.617,NaN,4.228,8.0,256.247,0 / 0,3109,2021-03-23 20:03:31:991
-0.08862,0.92893,9.81072,-0.00778,0.82569,9.77183,1.4E-4,-0.00164,1.1E-4,-4.654,17.588,-29.206,13.847,-4.83,0.046,5.0,62.0032,23.000332,120.219536,45.617,NaN,4.228,8.0,256.247,0 / 0,3211,2021-03-23 20:03:32:093
0.00718,0.79481,9.74366,-0.00674,0.82573,9.77182,5.3E-4,-0.00184,7.0E-5,-5.106,17.673,-30.563,13.734,-4.83,0.04,5.0,62.4271,23.000332,120.219536,45.617,NaN,4.228,8.0,256.247,0 / 0,3308,2021-03-23 20:03:32:190
-0.05988,0.94091,9.79156,-0.00353,0.8281,9.77162,1.1E-4,-0.00213,5.0E-5,-6.032,18.0,-30.618,16.303,-4.844,0.021,5.0,62.4271,23.000332,120.219536,45.617,NaN,4.228,8.0,256.247,0 / 0,3411,2021-03-23 20:03:32:293
-0.07425,0.81876,9.75803,-0.00687,0.82403,9.77197,0.0,-0.00153,1.0E-4,-5.619,17.341,-28.248,17.329,-4.82,0.04,5.0,62.4271,23.000332,120.219536,45.617,NaN,4.228,8.0,256.247,0 / 0,3509,2021-03-23 20:03:32:391
0.00479,0.77086,9.71971,-0.00893,0.82089,9.77223,5.2E-4,-0.0028,0.00111,-4.807,17.071,-27.59,14.607,-4.802,0.052,5.0,62.4271,23.000332,120.219536,45.617,NaN,4.228,8.0,256.247,0 / 0,3608,2021-03-23 20:03:32:490
-0.02156,0.80199,9.68139,-0.00585,0.81975,9.77233,0.00161,-0.00289,4.0E-4,-4.351,18.895,-30.759,10.575,-4.795,0.034,5.0,62.4506,23.000332,120.219536,45.617,NaN,4.228,8.0,256.247,0 / 0,3710,2021-03-23 20:03:32:592
-0.02635,0.86906,9.88976,-0.00135,0.8357,9.77098,-2.7E-4,-0.00226,-1.9E-4,-6.054,17.565,-29.824,16.331,-4.889,0.008,5.0,62.4506,23.000332,120.219536,45.617,NaN,4.228,8.0,256.247,0 / 0,3808,2021-03-23 20:03:32:690
-0.00479,0.93133,9.98556,-8.5E-4,0.83249,9.77125,-1.8E-4,-0.00197,4.2E-4,-5.954,17.72,-30.162,16.334,-4.87,0.005,5.0,62.4506,23.000332,120.219536,45.617,NaN,4.228,8.0,256.247,0 / 0,3909,2021-03-23 20:03:32:791
-0.12933,1.11335,9.68139,-7.7E-4,0.83252,9.77125,0.00719,-0.00365,-0.00111,-5.518,18.702,-30.379,15.614,-4.87,0.004,5.0,61.9858,23.000332,120.219536,45.617,NaN,4.228,8.0,256.247,0 / 0,4009,2021-03-23 20:03:32:891
-0.01677,1.2379,9.54726,-0.00768,0.89772,9.76547,0.01267,-0.00384,-4.3E-4,-4.999,16.22,-28.527,15.122,-5.252,0.045,5.0,61.9858,23.000332,120.219536,45.617,NaN,4.228,8.0,256.247,0 / 0,4109,2021-03-23 20:03:32:991
-0.05269,1.30017,9.56642,-0.01897,1.00299,9.75521,0.0121,-0.00312,0.00149,-5.425,18.164,-31.559,13.444,-5.87,0.111,5.0,61.9858,23.000332,120.219536,45.617,NaN,4.228,8.0,256.247,0 / 0,4209,2021-03-23 20:03:33:091
0.03114,1.3337,9.4826,-0.01759,1.04898,9.75037,0.00811,-0.00428,-2.0E-5,-5.125,16.597,-27.404,14.312,-6.14,0.103,5.0,63.2655,23.000332,120.219536,45.617,NaN,4.228,8.0,256.247,0 / 0,4309,2021-03-23 20:03:33:191
0.01916,1.30735,9.60954,-0.01189,1.12706,9.74166,0.00102,-0.00282,-5.5E-4,-6.144,18.769,-30.557,15.062,-6.6,0.07,5.0,63.2655,23.000332,120.219536,45.617,NaN,4.228,8.0,256.247,0 / 0,4409,2021-03-23 20:03:33:291
0.01916,1.31454,9.71492,-0.01446,1.17913,9.73549,6.3E-4,-7.5E-4,4.2E-4,-6.421,16.373,-28.152,17.425,-6.906,0.085,5.0,63.2655,23.000332,120.219536,45.617,NaN,4.228,8.0,256.247,0 / 0,4509,2021-03-23 20:03:33:391
-0.12215,1.39597,9.78438,-0.01686,1.19376,9.73371,4.4E-4,0.00138,-0.00143,-4.754,15.858,-29.13,14.584,-6.992,0.099,5.0,62.1866,23.000332,120.219536,45.617,NaN,4.228,8.0,256.247,0 / 0,4609,2021-03-23 20:03:33:491
-0.08862,1.26664,9.58558,-0.03006,1.21596,9.73093,5.0E-5,-0.00212,-7.9E-4,-5.309,16.948,-29.535,13.895,-7.123,0.177,5.0,62.1866,23.000332,120.219536,45.617,NaN,4.228,8.0,256.247,0 / 0,4708,2021-03-23 20:03:33:590
-0.0503,1.35765,9.67181,-0.04788,1.24298,9.72744,9.0E-5,-0.00677,0.00234,-4.993,16.451,-27.655,14.821,-7.282,0.282,5.0,62.1866,23.000332,120.219536,45.617,NaN,4.228,8.0,256.247,0 / 0,4809,2021-03-23 20:03:33:691
-0.02156,1.47501,9.88736,-0.04564,1.25758,9.72557,-6.4E-4,-0.00596,6.6E-4,-4.296,18.263,-30.115,10.805,-7.368,0.269,5.0,62.1866,23.000332,120.219536,45.617,NaN,4.228,8.0,256.247,0 / 0,4908,2021-03-23 20:03:33:790
-0.09341,1.41034,9.76761,-0.02602,1.28027,9.72269,3.5E-4,-0.00229,0.00104,-4.541,17.068,-29.79,13.745,-7.501,0.153,5.0,62.1572,23.000332,120.219536,45.617,NaN,4.228,8.0,256.247,0 / 0,5009,2021-03-23 20:03:33:891
-0.06706,1.27143,9.66941,-0.03169,1.29789,9.72033,-0.00108,-0.00286,0.00313,-4.373,15.329,-28.283,12.423,-7.605,0.187,5.0,62.1572,23.000332,120.219536,45.617,NaN,4.228,8.0,256.247,0 / 0,5108,2021-03-23 20:03:33:990
0.01677,1.30017,9.65265,-0.0387,1.297,9.72043,-0.00137,-0.00448,0.00133,-4.287,15.481,-27.578,12.485,-7.6,0.228,5.0,62.1572,23.000332,120.219536,45.617,NaN,4.228,8.0,256.247,0 / 0,5209,2021-03-23 20:03:34:091
-0.00958,1.35765,9.8706,-0.03147,1.31016,9.71869,-3.1E-4,-0.00379,8.7E-4,-3.522,16.801,-29.45,11.176,-7.678,0.186,5.0,62.6034,23.000332,120.219536,45.617,NaN,4.228,8.0,256.247,0 / 0,5309,2021-03-23 20:03:34:191
-0.04072,1.37202,9.78198,-0.02023,1.31885,9.71754,-0.0036,0.00148,0.00154,-5.68,14.907,-27.825,18.016,-7.729,0.119,5.0,62.6034,23.000332,120.219536,45.617,NaN,4.228,8.0,256.247,0 / 0,5408,2021-03-23 20:03:34:290
-0.0479,1.19958,9.73887,-0.02741,1.30868,9.7189,-0.00583,0.00128,0.00149,-2.541,14.373,-26.626,9.922,-7.712,0.128,5.0,62.6034,23.000332,120.219536,45.617,NaN,4.228,8.0,256.247,0 / 0,5512,2021-03-23 20:03:34:394
0.10059,1.19,9.61672,-0.02518,1.29693,9.72048,-0.00381,0.00341,4.8E-4,-4.699,14.497,-24.517,16.424,-7.6,0.148,5.0,63.1005,23.000332,120.219536,45.617,NaN,4.228,8.0,256.247,0 / 0,5609,2021-03-23 20:03:34:491
0.03353,1.19239,9.68139,-0.01823,1.28396,9.72222,-0.00285,0.00559,5.3E-4,-2.983,14.461,-25.001,10.073,-7.523,0.107,5.0,63.1005,23.000332,120.219536,45.617,NaN,4.228,8.0,256.247,0 / 0,5709,2021-03-23 20:03:34:591
-0.0982,1.3337,9.79635,-0.01173,1.27517,9.72338,-0.00278,0.00948,-0.00363,-3.684,13.623,-24.247,13.332,-7.471,0.069,5.0,63.1005,23.000332,120.219536,45.617,NaN,4.228,8.0,256.247,0 / 0,5810,2021-03-23 20:03:34:692
-0.11017,1.24029,9.89455,-0.03575,1.26519,9.72463,-9.0E-4,0.00516,-0.00143,-2.791,14.56,-26.162,9.639,-7.413,0.211,5.0,62.2782,23.000332,120.219536,45.617,NaN,4.228,8.0,256.247,0 / 0,5909,2021-03-23 20:03:34:791
0.05748,1.21155,9.4323,-0.05984,1.25311,9.72607,0.00319,5.4E-4,-3.2E-4,-3.277,13.278,-25.09,11.093,-7.341,0.352,5.0,62.2782,23.000332,120.219536,45.617,NaN,4.228,8.0,256.247,0 / 0,6009,2021-03-23 20:03:34:891
-0.00479,1.38879,9.66941,-0.06067,1.25014,9.72645,0.00247,-3.2E-4,-0.002,-2.665,12.646,-23.707,11.17,-7.324,0.357,5.0,62.2782,23.000332,120.219536,45.617,NaN,4.228,8.0,256.247,0 / 0,6109,2021-03-23 20:03:34:991
-0.17484,1.55644,9.64307,-0.04516,1.27046,9.7239,-1.2E-4,-0.00109,-0.00449,-2.723,14.038,-23.373,10.441,-7.444,0.266,5.0,62.2782,23.000332,120.219536,45.617,NaN,4.228,8.0,256.247,0 / 0,6209,2021-03-23 20:03:35:091
-0.33292,1.52291,9.8682,-0.07023,1.33238,9.71546,-6.4E-4,-0.00383,-0.00427,-3.09,12.997,-21.658,11.261,-7.809,0.414,5.0,62.8463,23.000332,120.219536,45.617,NaN,4.228,8.0,256.247,0 / 0,6309,2021-03-23 20:03:35:191
0.06467,1.33131,9.9209,-0.08138,1.36458,9.71091,0.00476,-0.00682,6.2E-4,-4.946,12.152,-20.615,19.36,-7.954,0.532,5.0,62.8463,23.000332,120.219536,45.617,NaN,4.228,8.0,256.247,0 / 0,6409,2021-03-23 20:03:35:291
0.08383,1.36484,9.72929,-0.05899,1.36022,9.71168,0.0028,6.0E-5,-0.00343,-3.457,11.281,-20.772,12.766,-7.973,0.348,5.0,62.8463,23.000332,120.219536,45.617,NaN,4.228,8.0,256.247,0 / 0,6509,2021-03-23 20:03:35:391
-0.23951,1.48699,9.78677,-0.03035,1.35748,9.71219,0.00798,0.01384,-0.00829,-2.582,12.828,-19.568,11.078,-7.957,0.179,5.0,60.1959,23.000332,120.219536,45.617,NaN,4.228,8.0,256.247,0 / 0,6609,2021-03-23 20:03:35:491
-0.12215,1.49657,9.48739,-0.04277,1.37211,9.71009,0.00818,0.01662,-0.00428,-3.806,11.636,-18.396,15.819,-8.043,0.252,5.0,60.1959,23.000332,120.219536,45.617,NaN,4.228,8.0,256.247,0 / 0,6709,2021-03-23 20:03:35:591
-0.19879,1.35765,9.70294,-0.07611,1.40246,9.70555,-0.00295,0.00904,-0.00614,-3.534,11.8,-19.207,15.875,-8.222,0.449,5.0,60.1959,23.000332,120.219536,45.617,NaN,4.228,8.0,256.247,0 / 0,6808,2021-03-23 20:03:35:690
-0.24669,1.45824,9.81072,-0.1058,1.40438,9.70499,-0.0018,0.00436,-0.00735,-3.436,12.955,-17.869,11.696,-8.233,0.625,5.0,60.4975,23.000332,120.219536,45.617,NaN,4.228,8.0,256.247,0 / 0,6908,2021-03-23 20:03:35:790
-0.16047,1.39597,9.69097,-0.13804,1.4124,9.70343,-0.00129,-0.00516,-0.0033,-2.072,13.599,-18.868,7.725,-8.256,0.751,5.0,60.4975,23.000332,120.219536,45.617,NaN,4.228,8.0,256.247,0 / 0,7009,2021-03-23 20:03:35:891
-0.01916,1.42232,9.77959,-0.13624,1.41609,9.70291,-0.00312,-0.01028,-0.00304,-3.077,12.619,-17.414,11.941,-8.303,0.804,5.0,60.4975,23.000332,120.219536,45.617,NaN,4.228,8.0,256.247,0 / 0,7110,2021-03-23 20:03:35:992
-0.03353,1.58039,9.60714,-0.11142,1.40682,9.70458,-0.00242,0.00181,-0.00455,-2.645,13.029,-15.538,11.863,-8.248,0.658,5.0,60.4462,23.000332,120.219536,45.617,NaN,4.228,8.0,256.247,0 / 0,7208,2021-03-23 20:03:36:090
-0.18203,1.58758,9.59277,-0.09605,1.42782,9.70168,-0.00249,0.0027,-0.00514,-2.714,13.736,-16.292,11.048,-8.372,0.567,5.0,60.4462,23.000332,120.219536,45.617,NaN,4.228,8.0,256.247,0 / 0,7309,2021-03-23 20:03:36:191
-0.23232,1.578,9.65983,-0.10581,1.44519,9.699,-0.011,-0.00134,-0.00682,-3.222,12.86,-15.037,11.86,-8.474,0.625,5.0,60.4462,23.000332,120.219536,45.617,NaN,4.228,8.0,256.247,0 / 0,7409,2021-03-23 20:03:36:291
-0.07425,1.66662,9.81072,-0.13723,1.45397,9.69729,-0.00501,-0.00656,-0.00378,-1.885,15.438,-15.306,7.391,-8.526,0.811,5.0,61.426,23.000332,120.219536,45.617,NaN,4.228,8.0,256.247,0 / 0,7509,2021-03-23 20:03:36:391
-0.05748,1.64746,9.87779,-0.12654,1.47914,9.69363,0.00296,-0.00725,-0.00485,-3.003,14.112,-14.044,11.352,-8.569,0.807,5.0,61.426,23.000332,120.219536,45.617,NaN,4.228,8.0,256.247,0 / 0,7609,2021-03-23 20:03:36:491
0.05748,1.67859,9.60714,-0.12443,1.50441,9.68977,0.01617,-0.00581,-0.00694,-3.059,13.006,-14.021,11.977,-8.824,0.736,5.0,61.426,23.000332,120.219536,45.617,NaN,4.228,8.0,256.247,0 / 0,7708,2021-03-23 20:03:36:590
-0.16766,1.81511,9.74126,-0.10924,1.56502,9.68035,0.00252,-9.1E-4,-0.0014,-5.0,15.107,-11.235,17.198,-9.183,0.647,5.0,61.426,23.000332,120.219536,45.617,NaN,4.228,8.0,256.247,0 / 0,7808,2021-03-23 20:03:36:690
-0.35926,1.46064,9.47781,-0.12467,1.5903,9.67604,-0.00498,-0.00244,-0.00428,-4.29,15.08,-12.412,13.904,-9.307,0.683,5.0,62.577,23.000332,120.219536,45.617,NaN,4.228,8.0,256.247,0 / 0,7909,2021-03-23 20:03:36:791
0.06706,1.62351,9.54966,-0.13676,1.58404,9.67691,0.01417,-0.01548,-0.0068,-1.035,15.161,-10.467,3.977,-9.296,0.81,5.0,62.577,23.000332,120.219536,45.617,NaN,4.228,8.0,256.247,0 / 0,8009,2021-03-23 20:03:36:891
0.23951,1.64027,9.72211,-0.11425,1.60488,9.67376,0.00161,-0.00579,-0.00157,-2.436,14.791,-9.709,7.345,-9.419,0.677,5.0,62.577,23.000332,120.219536,45.617,NaN,4.228,8.0,256.247,0 / 0,8109,2021-03-23 20:03:36:991
0.08383,1.57081,9.20716,-0.05331,1.61051,9.67336,-0.01675,0.01838,-0.00538,-2.948,14.567,-7.349,10.862,-9.435,0.48,5.0,62.6064,23.000332,120.219536,45.617,NaN,4.228,8.0,256.247,0 / 0,8209,2021-03-23 20:03:37:091
-0.26346,1.51573,9.57361,-0.05119,1.60719,9.67392,-0.01765,0.02247,-0.01145,-1.803,13.741,-6.404,7.821,-9.433,0.303,5.0,62.6064,23.000332,120.219536,45.617,NaN,4.228,8.0,256.247,0 / 0,8309,2021-03-23 20:03:37:191
-0.17963,1.43669,9.88018,-0.1211,1.59271,9.67569,-0.01282,0.0032,-0.0094,-2.841,13.075,-4.813,12.66,-9.347,0.717,5.0,62.6064,23.000332,120.219536,45.617,NaN,4.228,8.0,256.247,0 / 0,8410,2021-03-23 20:03:37:292
0.0958,1.47501,9.85383,-0.15082,1.55245,9.68182,-0.01031,-0.00719,-0.0075,-3.09,13.48,-5.418,12.742,-9.189,0.93,5.0,62.2603,23.000332,120.219536,45.617,NaN,4.228,8.0,256.247,0 / 0,8509,2021-03-23 20:03:37:391
-0.2443,1.384,9.4802,-0.13123,1.5362,9.68469,0.00521,-0.00971,-0.00998,-3.085,14.426,-4.902,11.862,-9.012,0.776,5.0,62.2603,23.000332,120.219536,45.617,NaN,4.228,8.0,256.247,0 / 0,8609,2021-03-23 20:03:37:491
0.11975,1.62111,9.42032,-0.14015,1.54381,9.68336,5.0E-4,-0.02191,-0.01457,-5.084,13.196,-3.284,20.767,-9.057,0.829,5.0,62.2603,23.000332,120.219536,45.617,NaN,4.228,8.0,256.247,0 / 0,8709,2021-03-23 20:03:37:591
0.14131,1.44148,9.92808,-0.1018,1.52194,9.6873,-0.01656,-0.00857,-0.00998,-4.473,13.76,-2.249,15.88,-8.928,0.602,5.0,62.2603,23.000332,120.219536,45.617,NaN,4.228,8.0,256.247,0 / 0,8809,2021-03-23 20:03:37:691
0.11496,1.48938,9.6742,-0.07455,1.50777,9.68976,-0.01634,-0.00554,-0.01145,-3.975,15.139,-3.579,14.638,-8.844,0.441,5.0,61.8748,23.000332,120.219536,45.617,NaN,4.228,8.0,256.247,0 / 0,8909,2021-03-23 20:03:37:791
-0.15568,1.44866,9.57361,-0.07193,1.46507,9.69633,-0.01723,-0.00796,-0.01904,-6.598,13.384,-1.024,28.333,-8.592,0.425,5.0,61.8748,23.000332,120.219536,45.617,NaN,4.228,8.0,256.247,0 / 0,9009,2021-03-23 20:03:37:891
0.07425,1.06545,9.87539,-0.09467,1.42596,9.70196,-0.01707,-0.01505,-0.01556,-5.979,14.097,0.193,23.435,-8.408,0.55,5.0,61.8748,23.000332,120.219536,45.617,NaN,4.228,8.0,256.247,0 / 0,9109,2021-03-23 20:03:37:991
0.21556,1.40795,9.54247,-0.07705,1.38524,9.70802,7.7E-4,-0.00666,-0.00804,-5.814,13.877,-1.065,23.234,-8.12,0.455,5.0,60.232,23.000332,120.219536,45.617,NaN,4.228,8.0,256.247,0 / 0,9208,2021-03-23 20:03:38:090
-0.11975,1.25706,9.83707,-0.03327,1.36669,9.71089,0.01133,0.00924,-0.0121,-7.402,13.641,-0.708,26.577,-8.011,0.196,5.0,60.232,23.000332,120.219536,45.617,NaN,4.228,8.0,256.247,0 / 0,9308,2021-03-23 20:03:38:190
-0.13412,1.19718,9.86341,-0.07155,1.38342,9.70832,0.00827,0.01261,-0.01198,-9.237,16.228,-2.722,29.033,-8.11,0.422,5.0,60.232,23.000332,120.219536,45.617,NaN,4.228,8.0,256.247,0 / 0,9409,2021-03-23 20:03:38:291
-0.35208,1.48938,9.70055,-0.08982,1.36891,9.71022,6.4E-4,0.00827,-0.00846,-9.639,15.343,-3.974,33.096,-8.024,0.53,5.0,63.8635,23.000332,120.219536,45.617,NaN,4.228,8.0,256.247,0 / 0,9508,2021-03-23 20:03:38:390
-0.06706,1.1397,9.78677,-0.15165,1.35803,9.71098,0.01214,-0.02789,-0.01224,-10.161,17.304,-5.263,29.924,-7.96,0.895,5.0,63.8635,23.000332,120.219536,45.617,NaN,4.228,8.0,256.247,0 / 0,9609,2021-03-23 20:03:38:491
0.28022,1.36963,9.84665,-0.12777,1.34577,9.71303,0.01124,-0.01883,-0.00615,-8.629,17.911,-7.349,25.839,-7.888,0.754,5.0,63.8635,23.000332,120.219536,45.617,NaN,4.228,8.0,256.247,0 / 0,9709,2021-03-23 20:03:38:591
-0.03353,1.31215,9.36045,-0.08226,1.34347,9.71384,-0.00622,-4.3E-4,-0.00565,-10.44,16.705,-8.88,29.156,-7.874,0.485,5.0,61.2863,23.000332,120.219536,45.617,NaN,4.228,8.0,256.247,0 / 0,9809,2021-03-23 20:03:38:691
-0.00479,1.26185,9.41314,-0.04214,1.35765,9.71213,-0.01467,0.009,-0.01242,-10.069,17.741,-10.72,27.449,-7.958,0.249,5.0,61.2863,23.000332,120.219536,45.617,NaN,4.228,8.0,256.247,0 / 0,9909,2021-03-23 20:03:38:791
-0.15568,1.16605,10.07897,-0.06735,1.31053,9.71845,-0.01884,0.00809,-0.0078,-8.746,17.788,-11.838,25.05,-7.68,0.397,5.0,61.2863,23.000332,120.219536,45.617,NaN,4.228,8.0,256.247,0 / 0,10009,2021-03-23 20:03:38:891
-0.30178,1.02713,9.88257,-0.0842,1.282,9.72213,-0.01236,0.00451,-0.00746,-9.419,15.966,-11.455,27.745,-7.512,0.496,5.0,61.2863,23.000332,120.219536,45.617,NaN,4.228,8.0,256.247,0 / 0,10108,2021-03-23 20:03:38:990
-0.09101,1.06785,9.81312,-0.11783,1.22243,9.72945,0.00263,-0.01019,-0.0075,-9.362,17.222,-11.952,26.49,-7.161,0.694,5.0,60.0425,23.000332,120.219536,45.617,NaN,4.228,8.0,256.247,0 / 0,10208,2021-03-23 20:03:39:090
0.15568,1.11575,9.70055,-0.11055,1.19183,9.73333,0.00875,-0.01188,-0.002,-9.033,17.706,-11.803,25.316,-6.981,0.651,5.0,60.0425,23.000332,120.219536,45.617,NaN,4.228,8.0,256.247,0 / 0,10309,2021-03-23 20:03:39:191
0.02395,1.20676,9.44906,-0.08299,1.1872,9.73417,-0.00208,0.00933,-0.00959,-8.919,15.658,-13.542,27.433,-6.953,0.488,5.0,60.0425,23.000332,120.219536,45.617,NaN,4.228,8.0,256.247,0 / 0,10408,2021-03-23 20:03:39:290
-0.36166,1.07503,9.66702,-0.09803,1.18935,9.73377,-0.01433,-0.00163,-0.00718,-7.874,17.838,-13.152,22.703,-6.966,0.577,5.0,61.277,23.000332,120.219536,45.617,NaN,4.228,8.0,256.247,0 / 0,10509,2021-03-23 20:03:39:391
-0.28981,0.76846,9.76043,-0.12582,1.14104,9.73923,-0.00384,0.00345,0.00487,-8.916,18.214,-14.768,25.118,-6.682,0.74,5.0,61.277,23.000332,120.219536,45.617,NaN,4.228,8.0,256.247,0 / 0,10609,2021-03-23 20:03:39:491
-0.32573,1.04629,9.64067,-0.14142,1.11325,9.74223,0.01159,-0.01259,0.00647,-9.803,16.564,-14.959,28.81,-6.518,0.832,5.0,61.277,23.000332,120.219536,45.617,NaN,4.228,8.0,256.247,0 / 0,10709,2021-03-23 20:03:39:591
0.18203,1.15167,9.78917,-0.15424,1.10926,9.74249,0.00213,-0.04477,0.00699,-10.438,15.86,-12.776,30.463,-6.495,0.907,5.0,59.3075,23.000332,120.219536,45.617,NaN,4.228,8.0,256.247,0 / 0,10809,2021-03-23 20:03:39:691
0.39758,0.85708,10.39991,-0.07551,1.10177,9.74427,-0.00275,-0.01574,0.01248,-9.949,16.292,-14.154,30.064,-6.451,0.444,5.0,59.3075,23.000332,120.219536,45.617,NaN,4.228,8.0,256.247,0 / 0,10909,2021-03-23 20:03:39:791
-0.02156,0.97204,9.67181,-0.02607,1.07209,9.74784,5.5E-4,0.02732,0.00301,-10.726,14.887,-16.03,33.544,-6.276,0.153,5.0,59.3075,23.000332,120.219536,45.617,NaN,4.228,8.0,256.247,0 / 0,11009,2021-03-23 20:03:39:891
-0.33771,0.72056,9.65265,-0.04602,1.05329,9.74981,-2.9E-4,0.03814,-9.0E-4,-12.289,17.442,-17.402,32.832,-6.166,0.27,5.0,60.0871,23.000332,120.219536,45.617,NaN,4.228,8.0,256.247,0 / 0,11109,2021-03-23 20:03:39:991
-0.65386,0.96725,9.63588,-0.09462,1.04816,9.75002,0.02437,0.02713,0.0081,-12.086,16.318,-19.066,34.202,-6.136,0.556,5.0,60.0871,23.000332,120.219536,45.617,NaN,4.228,8.0,256.247,0 / 0,11209,2021-03-23 20:03:40:091
-0.49099,1.19479,9.77959,-0.11404,1.06368,9.74813,0.0327,-0.00742,0.00245,-13.57,16.32,-21.551,37.96,-6.227,0.67,5.0,60.0871,23.000332,120.219536,45.617,NaN,4.228,8.0,256.247,0 / 0,11308,2021-03-23 20:03:40:190
-0.07185,1.29777,9.72211,-0.10093,1.10104,9.74412,0.02152,-0.01987,0.00298,-11.9,15.625,-22.346,33.67,-6.446,0.593,5.0,60.0871,23.000332,120.219536,45.617,NaN,4.228,8.0,256.247,0 / 0,11409,2021-03-23 20:03:40:291
-0.20119,1.3361,9.31015,-0.05225,1.14759,9.73913,0.0285,-0.01221,0.00417,-11.016,15.047,-24.296,32.161,-6.72,0.307,5.0,63.114,23.000332,120.219536,45.617,NaN,4.228,8.0,256.247,0 / 0,11509,2021-03-23 20:03:40:391
0.06227,1.44387,10.17717,-0.05439,1.19673,9.73321,0.00395,0.00729,0.00259,-10.001,15.372,-26.169,29.333,-7.009,0.32,5.0,63.114,23.000332,120.219536,45.617,NaN,4.228,8.0,256.247,0 / 0,11609,2021-03-23 20:03:40:491
0.05748,1.19718,9.88736,-0.02372,1.24183,9.72768,-0.01189,0.01097,0.01315,-10.407,15.343,-26.198,28.982,-7.275,0.14,5.0,63.114,23.000332,120.219536,45.617,NaN,4.228,8.0,256.247,0 / 0,11708,2021-03-23 20:03:40:590
-0.2922,1.03911,9.63828,-0.03717,1.22595,9.72965,-0.01103,0.02016,-0.00527,-11.188,10.619,-26.914,37.859,-7.181,0.219,5.0,63.3399,23.000332,120.219536,45.617,NaN,4.228,8.0,256.247,0 / 0,11810,2021-03-23 20:03:40:692
-0.36645,1.15167,9.58319,-0.08301,1.20932,9.73145,-0.02047,-5.0E-5,-0.00513,-10.291,10.844,-27.031,35.703,-7.084,0.489,5.0,63.3399,23.000332,120.219536,45.617,NaN,4.228,8.0,256.247,0 / 0,11909,2021-03-23 20:03:40:791
-0.23711,1.12293,9.61912,-0.14401,1.17182,9.73532,-0.00997,-0.02827,0.00435,-7.007,8.601,-27.097,31.341,-6.863,0.848,5.0,63.3399,23.000332,120.219536,45.617,NaN,4.228,8.0,256.247,0 / 0,12008,2021-03-23 20:03:40:890
0.56524,1.33849,9.92569,-0.12712,1.14593,9.73864,-0.00919,-0.03854,0.00938,-6.786,7.185,-24.906,36.605,-6.71,0.748,5.0,61.4976,23.000332,120.219536,45.617,NaN,4.228,8.0,256.247,0 / 0,12108,2021-03-23 20:03:40:990
0.40956,1.24269,9.64307,-0.04193,1.1387,9.74023,-0.00407,0.02926,0.00205,-7.361,6.246,-23.261,39.452,-6.668,0.247,5.0,61.4976,23.000332,120.219536,45.617,NaN,4.228,8.0,256.247,0 / 0,12209,2021-03-23 20:03:41:091
-0.34968,0.99839,9.85144,0.01467,1.13347,9.74092,0.00621,0.03137,-0.00227,-6.334,7.311,-24.867,31.203,-6.637,-0.086,5.0,61.4976,23.000332,120.219536,45.617,NaN,4.228,8.0,256.247,0 / 0,12309,2021-03-23 20:03:41:191
-0.53171,0.83552,10.00233,-0.04819,1.12392,9.74191,0.00421,-0.01601,-0.00259,-5.582,5.631,-24.242,35.095,-6.581,0.283,5.0,61.3308,23.000332,120.219536,45.617,NaN,4.228,8.0,256.247,0 / 0,12409,2021-03-23 20:03:41:291
0.00718,1.07503,9.61912,-0.04496,1.12303,9.74203,0.00555,-0.02149,0.00223,-5.27,7.961,-23.542,25.545,-6.576,0.264,5.0,61.3308,23.000332,120.219536,45.617,NaN,4.228,8.0,256.247,0 / 0,12509,2021-03-23 20:03:41:391
0.19879,0.78762,9.80354,-0.02404,1.12498,9.74188,-0.00149,-0.01455,4.6E-4,-4.368,8.487,-24.76,20.586,-6.587,0.141,5.0,61.3308,23.000332,120.219536,45.617,NaN,4.228,8.0,256.247,0 / 0,12609,2021-03-23 20:03:41:491
-0.04311,0.88343,9.59756,0.0118,1.09467,9.74535,0.00269,0.00134,-0.00687,-4.575,7.692,-24.807,24.829,-6.409,-0.069,5.0,61.3308,23.000332,120.219536,45.617,NaN,4.228,8.0,256.247,0 / 0,12709,2021-03-23 20:03:41:591
-0.50536,0.82594,9.56403,0.00934,1.09118,9.74575,-0.00466,0.02132,8.3E-4,-4.157,7.007,-26.026,21.977,-6.388,-0.055,5.0,62.0318,23.000332,120.219536,45.617,NaN,4.228,8.0,256.247,0 / 0,12809,2021-03-23 20:03:41:691
-0.52931,0.85708,9.79156,-0.01992,1.07068,9.74801,-0.00128,-6.3E-4,0.00927,-4.302,7.434,-24.45,22.917,-6.268,0.117,5.0,62.0318,23.000332,120.219536,45.617,NaN,4.228,8.0,256.247,0 / 0,12909,2021-03-23 20:03:41:791
-0.13652,0.7493,10.00712,-0.07946,1.02673,9.75243,-0.00429,-0.03137,-0.00378,-4.165,6.314,-24.463,26.334,-6.01,0.467,5.0,62.0318,23.000332,120.219536,45.617,NaN,4.228,8.0,256.247,0 / 0,13009,2021-03-23 20:03:41:891
-0.02874,0.74691,9.67181,-0.07605,1.01444,9.75374,-0.00648,-0.03181,-2.6E-4,-4.864,3.598,-21.845,39.604,-5.938,0.447,5.0,61.2125,23.000332,120.219536,45.617,NaN,4.228,8.0,256.247,0 / 0,13108,2021-03-23 20:03:41:990
0.50297,0.8475,10.067,-0.0083,0.99071,9.75648,0.00273,-0.00597,0.00717,-4.733,5.069,-19.212,36.042,-5.798,0.049,5.0,61.2125,23.000332,120.219536,45.617,NaN,4.228,8.0,256.247,0 / 0,13209,2021-03-23 20:03:42:091
0.15089,0.74691,9.50176,0.096,0.95229,9.75983,0.01192,0.03111,0.00294,-6.178,4.91,-17.759,40.866,-5.573,-0.564,5.0,61.2125,23.000332,120.219536,45.617,NaN,4.228,8.0,256.247,0 / 0,13309,2021-03-23 20:03:42:191
-0.36884,1.03192,9.45146,0.09289,0.95417,9.75968,0.00669,0.04603,-0.00725,-5.223,6.533,-17.181,29.288,-5.584,-0.545,5.0,61.0567,23.000332,120.219536,45.617,NaN,4.228,8.0,256.247,0 / 0,13410,2021-03-23 20:03:42:292
-0.55326,0.98881,9.68139,0.01071,0.96812,9.75874,0.00427,0.01203,-0.00486,-7.737,6.337,-17.843,45.844,-5.666,-0.063,5.0,61.0567,23.000332,120.219536,45.617,NaN,4.228,8.0,256.247,0 / 0,13509,2021-03-23 20:03:42:391
-0.16047,0.7517,9.69576,0.00323,0.96895,9.75866,-5.7E-4,-0.04152,-0.00405,-9.707,6.315,-18.501,51.857,-5.67,-0.019,5.0,61.0567,23.000332,120.219536,45.617,NaN,4.228,8.0,256.247,0 / 0,13610,2021-03-23 20:03:42:492
0.37363,0.55769,10.02867,0.02649,0.96677,9.75884,-0.00213,-0.04408,0.00118,-8.831,8.77,-20.019,39.298,-5.658,-0.156,5.0,60.8164,23.000332,120.219536,45.617,NaN,4.228,8.0,256.247,0 / 0,13708,2021-03-23 20:03:42:590
0.21077,0.97444,9.59277,0.07095,0.96499,9.7588,0.0076,-0.01334,0.00749,-10.281,10.984,-21.137,37.1,-5.647,-0.417,5.0,60.8164,23.000332,120.219536,45.617,NaN,4.228,8.0,256.247,0 / 0,13809,2021-03-23 20:03:42:691
0.30896,0.87624,9.57361,0.0841,0.964,9.75879,-0.01053,0.00858,0.00158,-11.266,11.753,-22.098,37.449,-5.641,-0.494,5.0,60.8164,23.000332,120.219536,45.617,NaN,4.228,8.0,256.247,0 / 0,13908,2021-03-23 20:03:42:790
-0.02635,0.5553,10.01191,0.07273,0.95011,9.76025,-0.02459,0.02239,0.00252,-13.131,16.651,-26.542,33.217,-5.56,-0.427,5.0,60.8164,23.000332,120.219536,45.617,NaN,4.228,8.0,256.247,0 / 0,14009,2021-03-23 20:03:42:891
-0.51255,0.5074,10.0167,0.04269,0.86494,9.76834,-0.01109,0.03418,-0.00404,-13.853,19.964,-30.578,31.458,-5.06,-0.25,5.0,60.969,23.000332,120.219536,45.617,NaN,4.228,8.0,256.247,0 / 0,14109,2021-03-23 20:03:42:991
-0.3401,0.83792,9.90892,-0.07042,0.79606,9.77403,0.01961,-0.01184,-0.00394,-13.62,21.208,-32.115,31.175,-4.656,0.413,5.0,60.969,23.000332,120.219536,45.617,NaN,4.228,8.0,256.247,0 / 0,14209,2021-03-23 20:03:43:091
-0.00719,0.87145,9.80593,-0.09126,0.79026,9.77433,0.0232,-0.00699,0.00188,-16.064,20.927,-38.029,34.292,-4.622,0.535,5.0,60.969,23.000332,120.219536,45.617,NaN,4.228,8.0,256.247,0 / 0,14309,2021-03-23 20:03:43:191
-0.14131,0.93372,9.2886,-0.04209,0.80538,9.77343,-0.00239,0.00488,-0.0021,-16.135,20.714,-40.049,33.95,-4.601,0.355,5.0,60.1493,23.000332,120.219536,45.617,NaN,4.228,8.0,256.247,0 / 0,14408,2021-03-23 20:03:43:290
-0.3425,-0.06024,9.6766,-0.04699,0.78352,9.77519,-0.00944,0.00156,-0.00571,-14.975,18.883,-39.101,34.558,-4.583,0.275,5.0,60.1493,23.000332,120.219536,45.617,NaN,4.228,8.0,256.247,0 / 0,14509,2021-03-23 20:03:43:391
0.08862,0.7972,9.93766,-0.07759,0.76105,9.77677,0.00329,-0.00792,0.00388,-15.181,14.59,-37.546,40.533,-4.451,0.455,5.0,60.1493,23.000332,120.219536,45.617,NaN,4.228,8.0,256.247,0 / 0,14608,2021-03-23 20:03:43:490
-0.07904,0.59123,9.78438,-0.06206,0.74023,9.77848,0.00461,0.01011,0.00324,-12.633,12.878,-34.163,40.409,-4.329,0.364,5.0,62.7536,23.000332,120.219536,45.617,NaN,4.228,8.0,256.247,0 / 0,14708,2021-03-23 20:03:43:590
-0.31376,0.69421,9.64546,-0.06244,0.71507,9.78035,-0.01054,-0.00306,-7.2E-4,-14.105,9.798,-31.404,49.264,-4.182,0.366,5.0,62.7536,23.000332,120.219536,45.617,NaN,4.228,8.0,256.247,0 / 0,14809,2021-03-23 20:03:43:691
-0.13892,0.05712,9.94724,-0.08359,0.71145,9.78045,-0.02364,-0.00428,-0.00143,-13.245,10.652,-30.3,45.253,-4.16,0.49,5.0,62.7536,23.000332,120.219536,45.617,NaN,4.228,8.0,256.247,0 / 0,14908,2021-03-23 20:03:43:790
-0.10299,0.57925,10.05981,-0.08009,0.65009,9.78475,-0.01136,-0.00562,0.00726,-12.989,10.222,-28.094,48.028,-4.029,0.547,5.0,65.4345,23.000332,120.219536,45.617,NaN,4.228,8.0,256.247,0 / 0,15009,2021-03-23 20:03:43:891
-0.12215,0.10023,9.99754,-0.04347,0.59212,9.78866,0.00641,0.00327,0.00322,-13.47,10.996,-27.34,46.143,-3.462,0.254,5.0,65.4345,23.000332,120.219536,45.617,NaN,4.228,8.0,256.247,0 / 0,15108,2021-03-23 20:03:43:990
-0.39758,0.86666,9.15208,-0.06551,0.5608,9.79038,0.03951,0.0031,-6.2E-4,-11.195,11.255,-27.689,41.648,-3.278,0.383,5.0,65.4345,23.000332,120.219536,45.617,NaN,4.228,8.0,256.247,0 / 0,15208,2021-03-23 20:03:44:090
-0.06706,0.61757,8.95089,-0.07817,0.63184,9.78596,0.02358,-0.00464,0.0033,-12.672,9.408,-25.681,51.119,-3.694,0.458,5.0,65.4345,23.000332,120.219536,45.617,NaN,4.228,8.0,256.247,0 / 0,15308,2021-03-23 20:03:44:190
0.10778,0.46429,9.97838,-0.07432,0.64342,9.78524,-0.01555,-0.01934,0.00525,-13.303,7.536,-23.214,54.247,-3.762,0.435,5.0,62.3541,23.000332,120.219536,45.617,NaN,4.228,8.0,256.247,0 / 0,15409,2021-03-23 20:03:44:291
-0.16766,0.82115,9.89455,-0.05931,0.63282,9.78603,-0.00593,-0.00993,-0.00168,-12.743,8.812,-23.364,51.476,-3.7,0.347,5.0,62.3541,23.000332,120.219536,45.617,NaN,4.228,8.0,256.247,0 / 0,15508,2021-03-23 20:03:44:390
-0.06227,0.67266,9.68378,-0.04561,0.63327,9.78608,0.00541,-0.00617,0.00132,-10.913,7.802,-19.398,50.297,-3.702,0.267,5.0,62.3541,23.000332,120.219536,45.617,NaN,4.228,8.0,256.247,0 / 0,15609,2021-03-23 20:03:44:491
0.11736,0.81397,9.61672,-0.04157,0.66159,9.78422,-0.00101,-0.00514,0.00413,-10.774,7.523,-20.002,49.92,-3.868,0.243,5.0,62.3844,23.000332,120.219536,45.617,NaN,4.228,8.0,256.247,0 / 0,15708,2021-03-23 20:03:44:590
0.01437,0.04515,10.03346,-0.02016,0.65735,9.78457,-0.0453,0.00156,3.3E-4,-11.72,8.259,-16.968,52.846,-3.843,0.118,5.0,62.3844,23.000332,120.219536,45.617,NaN,4.228,8.0,256.247,0 / 0,15810,2021-03-23 20:03:44:692
-0.20598,0.24394,9.84665,-0.01554,0.60019,9.78826,-0.02686,0.00411,-0.00179,-11.245,7.634,-14.154,51.267,-3.509,0.091,5.0,62.3844,23.000332,120.219536,45.617,NaN,4.228,8.0,256.247,0 / 0,15909,2021-03-23 20:03:44:791
0.14131,0.9457,9.45386,-0.03249,0.56389,9.79037,0.01625,-0.00419,-0.00117,-12.97,9.141,-13.374,53.277,-3.296,0.19,5.0,65.2509,23.000332,120.219536,45.617,NaN,4.228,8.0,256.247,0 / 0,16009,2021-03-23 20:03:44:891
0.05509,0.85708,9.8203,-0.02993,0.58593,9.78908,0.01043,0.00524,-0.00188,-10.62,11.156,-13.622,43.065,-3.425,0.175,5.0,65.2509,23.000332,120.219536,45.617,NaN,4.228,8.0,256.247,0 / 0,16109,2021-03-23 20:03:44:991
-0.11496,0.67505,9.78438,-0.03963,0.61562,9.78723,-0.01675,-0.00601,0.00123,-11.493,9.743,-9.332,46.311,-3.599,0.232,5.0,65.2509,23.000332,120.219536,45.617,NaN,4.228,8.0,256.247,0 / 0,16208,2021-03-23 20:03:45:090
0.02156,0.5553,9.80833,-0.01215,0.60727,9.78782,-0.0166,0.0118,-0.00158,-11.333,12.751,-12.687,38.641,-3.55,0.071,5.0,63.4607,23.000332,120.219536,45.617,NaN,4.228,8.0,256.247,0 / 0,16309,2021-03-23 20:03:45:191
-0.55326,0.67266,9.55924,-0.01847,0.60021,9.78825,0.00503,0.00579,-4.2E-4,-12.224,14.398,-12.49,39.266,-3.509,0.108,5.0,63.4607,23.000332,120.219536,45.617,NaN,4.228,8.0,256.247,0 / 0,16409,2021-03-23 20:03:45:291
-0.29939,0.66547,9.81072,-0.0835,0.61365,9.78708,0.00359,-0.01073,-0.00168,-14.318,12.384,-11.676,47.95,-3.588,0.489,5.0,63.4607,23.000332,120.219536,45.617,NaN,4.228,8.0,256.247,0 / 0,16509,2021-03-23 20:03:45:391
-0.25627,0.92414,9.75803,-0.10146,0.62666,9.78608,-0.01952,-0.01447,0.00133,-14.246,16.791,-13.314,38.472,-3.664,0.594,5.0,63.1651,23.000332,120.219536,45.617,NaN,4.228,8.0,256.247,0 / 0,16609,2021-03-23 20:03:45:491
0.7808,0.62955,9.41554,-0.08989,0.62845,9.78608,-0.01944,-0.00894,0.00241,-13.748,16.897,-15.182,38.273,-3.674,0.526,5.0,63.1651,23.000332,120.219536,45.617,NaN,4.228,8.0,256.247,0 / 0,16709,2021-03-23 20:03:45:591
-0.40237,0.72056,9.79156,-0.01225,0.62106,9.78696,-0.01683,0.02926,0.00163,-15.711,16.465,-16.493,43.334,-3.631,0.072,5.0,63.1651,23.000332,120.219536,45.617,NaN,4.228,8.0,256.247,0 / 0,16808,2021-03-23 20:03:45:690
-0.74966,0.42118,10.07179,-0.0838,0.59319,9.78833,-0.00835,0.01455,-0.00472,-14.88,19.534,-19.002,35.694,-3.468,0.491,5.0,63.1651,23.000332,120.219536,45.617,NaN,4.228,8.0,256.247,0 / 0,16908,2021-03-23 20:03:45:790
-0.23951,0.62236,10.0167,-0.15279,0.58473,9.78801,0.00475,-0.0258,0.00416,-13.054,21.377,-19.415,31.049,-3.418,0.894,5.0,63.3406,23.000332,120.219536,45.617,NaN,4.228,8.0,256.247,0 / 0,17009,2021-03-23 20:03:45:891
-0.02156,0.43315,9.85623,-0.12675,0.58767,9.78821,0.00506,-0.02876,0.01008,-14.18,19.695,-18.932,34.034,-3.436,0.742,5.0,63.3406,23.000332,120.219536,45.617,NaN,4.228,8.0,256.247,0 / 0,17108,2021-03-23 20:03:45:990
0.10778,0.32298,10.07418,-0.04587,0.58637,9.789,0.00859,-0.00846,-0.00276,-13.784,22.335,-21.736,31.216,-3.428,0.269,5.0,63.3406,23.000332,120.219536,45.617,NaN,4.228,8.0,256.247,0 / 0,17209,2021-03-23 20:03:46:091
-0.20598,0.30861,9.80354,-0.0446,0.56077,9.7905,0.02088,-0.01063,0.00131,-14.09,21.934,-22.296,31.27,-3.278,0.261,5.0,61.0834,23.000332,120.219536,45.617,NaN,4.228,8.0,256.247,0 / 0,17311,2021-03-23 20:03:46:193
0.03832,0.40441,9.85862,-0.02916,0.53611,9.79194,0.03704,0.01101,0.00391,-11.892,22.546,-26.329,26.348,-3.134,0.171,5.0,61.0834,23.000332,120.219536,45.617,NaN,4.228,8.0,256.247,0 / 0,17409,2021-03-23 20:03:46:291
-0.13892,0.50979,9.68378,-0.00786,0.53494,9.79205,0.03671,0.00877,0.00728,-12.97,20.946,-24.587,30.243,-3.127,0.046,5.0,61.0834,23.000332,120.219536,45.617,NaN,4.228,8.0,256.247,0 / 0,17509,2021-03-23 20:03:46:391
-0.00479,0.37327,9.66223,-0.0208,0.53654,9.79194,0.00395,0.00289,-0.00953,-12.675,19.903,-27.108,31.335,-3.136,0.122,5.0,62.5275,23.000332,120.219536,45.617,NaN,4.228,8.0,256.247,0 / 0,17609,2021-03-23 20:03:46:491
-0.20837,0.01162,10.04783,-0.03126,0.48997,9.79435,-0.00657,-0.00204,-0.00994,-12.086,20.447,-26.829,29.546,-2.864,0.183,5.0,62.5275,23.000332,120.219536,45.617,NaN,4.228,8.0,256.247,0 / 0,17709,2021-03-23 20:03:46:591
0.10538,0.22957,9.66941,-0.03272,0.40328,9.7983,0.00199,-0.01417,-0.0014,-11.985,18.828,-28.538,30.947,-2.357,0.191,5.0,62.5275,23.000332,120.219536,45.617,NaN,4.228,8.0,256.247,0 / 0,17808,2021-03-23 20:03:46:690
0.26106,0.28705,9.58319,-0.01047,0.38468,9.7991,-0.00335,-0.00589,-0.00406,-9.235,19.691,-29.279,23.15,-2.248,0.061,5.0,62.5275,23.000332,120.219536,45.617,NaN,4.228,8.0,256.247,0 / 0,17909,2021-03-23 20:03:46:791
0.00479,0.1194,10.29932,0.0387,0.37546,9.79938,-0.03357,-0.00441,-0.01319,-8.335,18.392,-31.096,22.334,-2.194,-0.226,5.0,63.1611,23.000332,120.219536,45.617,NaN,4.228,8.0,256.247,0 / 0,18008,2021-03-23 20:03:46:890
-0.01916,-0.03149,10.5029,0.03983,0.29301,9.80219,-0.02436,-0.00696,-0.0123,-9.128,16.76,-30.7,26.345,-1.712,-0.233,5.0,63.1611,23.000332,120.219536,45.617,NaN,4.228,8.0,256.247,0 / 0,18109,2021-03-23 20:03:46:991
0.02874,0.15772,9.51373,0.03346,0.25651,9.80324,0.00395,-0.01668,-0.00729,-7.67,16.695,-30.56,23.91,-1.499,-0.196,5.0,63.1611,23.000332,120.219536,45.617,NaN,4.228,8.0,256.247,0 / 0,18209,2021-03-23 20:03:47:091
0.27783,0.15293,9.51852,0.03258,0.24864,9.80344,0.00957,-0.02223,-0.00741,-6.322,16.184,-29.945,19.399,-1.453,-0.19,5.0,63.0465,23.000332,120.219536,45.617,NaN,4.228,8.0,256.247,0 / 0,18309,2021-03-23 20:03:47:191
0.31615,0.13856,9.98077,0.08555,0.25645,9.80292,0.01006,0.01434,-0.00184,-4.724,13.935,-28.872,17.834,-1.498,-0.5,5.0,63.0465,23.000332,120.219536,45.617,NaN,4.228,8.0,256.247,0 / 0,18409,2021-03-23 20:03:47:291
0.0958,0.4068,9.66702,0.11355,0.24812,9.80285,0.01334,0.02409,-0.00108,-3.77,15.196,-30.921,12.991,-1.45,-0.664,5.0,63.0465,23.000332,120.219536,45.617,NaN,4.228,8.0,256.247,0 / 0,18509,2021-03-23 20:03:47:391
-0.53171,0.55051,9.78438,0.07507,0.28107,9.80233,-0.00601,0.02798,-0.01009,-2.597,13.579,-29.43,10.612,-1.642,-0.439,5.0,63.1663,23.000332,120.219536,45.617,NaN,4.228,8.0,256.247,0 / 0,18609,2021-03-23 20:03:47:491
-0.28501,0.52895,9.87299,-0.04835,0.31005,9.80163,0.00261,0.00416,0.00134,-2.868,15.205,-30.798,11.167,-1.812,0.283,5.0,63.1663,23.000332,120.219536,45.617,NaN,4.228,8.0,256.247,0 / 0,18709,2021-03-23 20:03:47:591
-0.26585,0.5074,9.71971,-0.06814,0.324,9.80106,0.0247,0.00583,0.00669,-5.587,15.663,-32.55,20.037,-1.893,0.398,5.0,63.1663,23.000332,120.219536,45.617,NaN,4.228,8.0,256.247,0 / 0,18808,2021-03-23 20:03:47:690
-0.27304,0.54572,9.54487,-0.0932,0.40105,9.798,0.02018,0.00231,0.00797,-5.391,16.447,-31.754,17.052,-2.344,0.545,5.0,62.5876,23.000332,120.219536,45.617,NaN,4.228,8.0,256.247,0 / 0,18909,2021-03-23 20:03:47:791
-0.43111,0.19604,9.82749,-0.14922,0.44577,9.79538,-0.01457,0.00536,0.02505,-5.119,16.145,-31.889,17.469,-2.605,0.873,5.0,62.5876,23.000332,120.219536,45.617,NaN,4.228,8.0,256.247,0 / 0,19009,2021-03-23 20:03:47:891
-0.44309,0.12898,9.86581,-0.18332,0.42827,9.79558,-0.01576,0.01348,0.03368,-6.4,13.943,-31.832,23.22,-2.503,1.072,5.0,62.5876,23.000332,120.219536,45.617,NaN,4.228,8.0,256.247,0 / 0,19108,2021-03-23 20:03:47:990
-0.23951,-0.11772,10.07179,-0.22181,0.34845,9.79795,-0.01753,0.00164,0.04214,-5.986,14.961,-33.798,22.682,-2.036,1.297,5.0,62.5876,23.000332,120.219536,45.617,NaN,4.228,8.0,256.247,0 / 0,19209,2021-03-23 20:03:48:091
-0.40716,-0.11532,9.86341,-0.24568,0.21924,9.80112,-0.01865,0.00864,0.04597,-5.396,14.619,-33.699,20.374,-1.281,1.436,5.0,62.3531,23.000332,120.219536,45.617,NaN,4.228,8.0,256.247,0 / 0,19309,2021-03-23 20:03:48:191
-0.29699,-0.20634,9.65265,-0.26999,0.16713,9.80151,-0.01315,0.00732,0.06256,-6.772,14.861,-33.805,26.995,-0.977,1.578,5.0,62.3531,23.000332,120.219536,45.617,NaN,4.228,8.0,256.247,0 / 0,19409,2021-03-23 20:03:48:291
-0.5365,-0.11053,9.75324,-0.30635,0.08016,9.80154,-0.01018,0.01881,0.06691,-7.853,14.042,-34.936,32.471,-0.468,1.79,5.0,62.3531,23.000332,120.219536,45.617,NaN,4.228,8.0,256.247,0 / 0,19509,2021-03-23 20:03:48:391
-1.04905,0.20562,9.99514,-0.37749,0.06614,9.79916,0.00428,0.02879,0.08502,-7.315,16.673,-35.86,25.924,-0.386,2.206,5.0,62.6443,23.000332,120.219536,45.617,NaN,4.228,8.0,256.247,0 / 0,19608,2021-03-23 20:03:48:490
-1.22628,0.23915,9.91611,-0.44679,0.07891,9.79615,0.00504,0.03012,0.09927,-8.201,14.919,-34.027,31.998,-0.461,2.611,5.0,62.6443,23.000332,120.219536,45.617,NaN,4.228,8.0,256.247,0 / 0,19709,2021-03-23 20:03:48:591
-1.07779,0.10023,9.69576,-0.61929,0.10497,9.78651,-0.00589,0.01655,0.14523,-8.848,13.946,-35.562,38.056,-0.613,3.621,5.0,62.6443,23.000332,120.219536,45.617,NaN,4.228,8.0,256.247,0 / 0,19811,2021-03-23 20:03:48:693
-1.25502,0.14335,9.72689,-0.76432,0.10248,9.77628,-0.00854,0.02056,0.16244,-6.886,14.885,-35.824,32.484,-0.599,4.47,5.0,63.2269,23.000332,120.219536,45.617,NaN,4.228,8.0,256.247,0 / 0,19909,2021-03-23 20:03:48:791
-1.59752,0.17448,9.85144,-0.83292,0.11796,9.7705,-0.00602,0.02255,0.20372,-6.635,15.001,-35.469,32.841,-0.689,4.873,5.0,63.2269,23.000332,120.219536,45.617,NaN,4.228,8.0,256.247,0 / 0,20009,2021-03-23 20:03:48:891
-1.80589,0.26789,9.82749,-0.99746,0.15901,9.75449,0.00176,0.02454,0.23228,-6.321,18.273,-37.003,27.641,-0.929,5.839,5.0,63.2269,23.000332,120.219536,45.617,NaN,4.228,8.0,256.247,0 / 0,20109,2021-03-23 20:03:48:991
-2.19868,0.20083,9.69336,-1.20679,0.20311,9.73,0.00183,0.01298,0.29411,-8.344,18.049,-37.81,33.926,-1.187,7.07,5.0,63.0851,23.000332,120.219536,45.617,NaN,4.228,8.0,256.247,0 / 0,20209,2021-03-23 20:03:49:091
-1.93522,0.29663,9.56642,-1.30204,0.22283,9.71727,6.6E-4,0.01051,0.31945,-6.977,20.03,-38.804,30.161,-1.302,7.632,5.0,63.0851,23.000332,120.219536,45.617,NaN,4.228,8.0,256.247,0 / 0,20308,2021-03-23 20:03:49:190
-1.66219,0.15293,9.62391,-1.43355,0.25389,9.69798,-0.01064,0.02644,0.37954,-7.745,21.66,-41.407,31.15,-1.484,8.409,5.0,63.0851,23.000332,120.219536,45.617,NaN,4.228,8.0,256.247,0 / 0,20409,2021-03-23 20:03:49:291
-1.58554,0.05233,9.83467,-1.52377,0.27965,9.68351,-0.01377,0.02763,0.40344,-7.257,23.233,-40.927,28.857,-1.634,8.943,5.0,63.0851,23.000332,120.219536,45.617,NaN,4.228,8.0,256.247,0 / 0,20509,2021-03-23 20:03:49:391
-1.52806,0.22238,9.94485,-1.53651,0.29396,9.68107,-0.005,0.02587,0.42349,-8.307,23.505,-42.911,30.133,-1.718,9.018,5.0,62.9699,23.000332,120.219536,45.617,NaN,4.228,8.0,256.247,0 / 0,20608,2021-03-23 20:03:49:490
-1.58794,0.30142,9.87539,-1.55197,0.31505,9.67794,-0.0032,0.02935,0.43446,-6.504,25.423,-44.947,28.019,-1.841,9.11,5.0,62.9699,23.000332,120.219536,45.617,NaN,4.228,8.0,256.247,0 / 0,20708,2021-03-23 20:03:49:590
-1.68614,0.05712,9.49697,-1.55037,0.3536,9.67687,-0.01972,0.05607,0.4627,-6.491,29.225,-47.094,23.572,-2.066,9.102,5.0,62.9699,23.000332,120.219536,45.617,NaN,4.228,8.0,256.247,0 / 0,20809,2021-03-23 20:03:49:691
-1.85858,-0.04826,9.56403,-1.57967,0.35288,9.67215,-0.0291,0.05401,0.4764,-6.518,25.714,-45.794,27.447,-2.062,9.276,5.0,62.1205,23.000332,120.219536,45.617,NaN,4.228,8.0,256.247,0 / 0,20908,2021-03-23 20:03:49:790
-1.65021,-0.09616,9.94245,-1.64559,0.32279,9.66221,-0.0346,0.0442,0.4908,-5.021,27.98,-46.375,23.249,-1.886,9.665,5.0,62.1205,23.000332,120.219536,45.617,NaN,4.228,8.0,256.247,0 / 0,21010,2021-03-23 20:03:49:892
-1.65261,0.14335,9.99275,-1.64931,0.28332,9.66281,-0.02636,0.03163,0.49455,-5.223,30.944,-49.284,22.151,-1.656,9.686,5.0,62.1205,23.000332,120.219536,45.617,NaN,4.228,8.0,256.247,0 / 0,21110,2021-03-23 20:03:49:992
-1.2167,0.09784,9.64307,-1.63397,0.28789,9.66528,-0.01948,0.01581,0.49111,-4.804,32.183,-48.907,21.424,-1.682,9.595,5.0,61.4087,23.000332,120.219536,45.617,NaN,4.228,8.0,256.247,0 / 0,21208,2021-03-23 20:03:50:090
-1.06821,0.13137,9.6766,-1.54779,0.31545,9.6786,-0.01806,0.02611,0.48871,-6.152,32.958,-50.138,21.807,-1.843,9.086,5.0,61.4087,23.000332,120.219536,45.617,NaN,4.228,8.0,256.247,0 / 0,21309,2021-03-23 20:03:50:191
-1.03947,0.05473,10.02149,-1.44645,0.35398,9.69293,-0.01608,0.04298,0.48888,-5.028,34.597,-51.832,18.925,-2.069,8.487,5.0,61.4087,23.000332,120.219536,45.617,NaN,4.228,8.0,256.247,0 / 0,21409,2021-03-23 20:03:50:291
-1.3652,0.12658,10.05023,-1.41395,0.36106,9.69746,-0.01314,0.04524,0.47831,-4.161,35.269,-50.204,16.898,-2.11,8.296,5.0,60.9256,23.000332,120.219536,45.617,NaN,4.228,8.0,256.247,0 / 0,21508,2021-03-23 20:03:50:390
-0.89097,0.1649,9.73887,-1.3993,0.37011,9.69925,-0.00565,0.00608,0.46296,-3.841,36.124,-49.955,16.355,-2.163,8.209,5.0,60.9256,23.000332,120.219536,45.617,NaN,4.228,8.0,256.247,0 / 0,21609,2021-03-23 20:03:50:491
-0.85265,0.48345,9.79396,-1.31911,0.40071,9.70926,-0.0093,0.01799,0.46103,-4.436,37.513,-51.034,15.145,-2.342,7.737,5.0,60.9256,23.000332,120.219536,45.617,NaN,4.228,8.0,256.247,0 / 0,21708,2021-03-23 20:03:50:590
-0.71613,0.37806,9.8682,-1.26817,0.43775,9.71445,-0.01167,0.00532,0.44328,-4.056,38.661,-54.087,14.848,-2.558,7.438,5.0,60.9256,23.000332,120.219536,45.617,NaN,4.228,8.0,256.247,0 / 0,21809,2021-03-23 20:03:50:691
-0.7305,0.49063,9.56642,-1.15535,0.46831,9.72709,-0.01003,0.01075,0.42627,-2.544,38.165,-51.093,12.564,-2.737,6.774,5.0,61.3957,23.000332,120.219536,45.617,NaN,4.228,8.0,256.247,0 / 0,21909,2021-03-23 20:03:50:791
-0.27064,0.37327,9.82509,-1.06155,0.51205,9.73557,-0.00487,0.01694,0.41186,-1.458,39.518,-48.978,8.442,-2.993,6.223,5.0,61.3957,23.000332,120.219536,45.617,NaN,4.228,8.0,256.247,0 / 0,22008,2021-03-23 20:03:50:890
-0.36166,0.83552,9.71013,-0.98527,0.53173,9.74253,0.0029,0.02478,0.39844,-0.813,39.943,-50.05,8.045,-3.108,5.775,5.0,61.3957,23.000332,120.219536,45.617,NaN,4.228,8.0,256.247,0 / 0,22108,2021-03-23 20:03:50:990
-0.33771,0.85229,9.60714,-0.84552,0.61494,9.75076,-6.4E-4,0.03766,0.35854,0.061,41.604,-50.005,5.478,-3.595,4.956,5.0,62.6453,23.000332,120.219536,45.617,NaN,4.228,8.0,256.247,0 / 0,22209,2021-03-23 20:03:51:091
-0.41914,0.76607,9.70294,-0.72828,0.68827,9.75532,-0.00514,0.03778,0.33654,0.095,39.598,-48.092,4.722,-4.025,4.27,5.0,62.6453,23.000332,120.219536,45.617,NaN,4.228,8.0,256.247,0 / 0,22308,2021-03-23 20:03:51:190
-0.45986,0.82115,9.63109,-0.69084,0.71556,9.75608,-0.0074,0.02726,0.2947,1.279,40.045,-46.171,2.98,-4.184,4.05,5.0,62.6453,23.000332,120.219536,45.617,NaN,4.228,8.0,256.247,0 / 0,22409,2021-03-23 20:03:51:291
-0.26585,0.86906,9.46343,-0.62611,0.77054,9.75626,-0.0146,0.01338,0.27548,1.4,41.263,-46.875,2.585,-4.507,3.672,5.0,63.4144,23.000332,120.219536,45.617,NaN,4.228,8.0,256.247,0 / 0,22508,2021-03-23 20:03:51:390
0.09341,0.97204,9.75803,-0.52649,0.80817,9.7591,-0.01743,-0.00284,0.23413,0.393,40.186,-45.8,3.249,-4.727,3.088,5.0,63.4144,23.000332,120.219536,45.617,NaN,4.228,8.0,256.247,0 / 0,22608,2021-03-23 20:03:51:490
0.29459,1.19,9.72689,-0.44535,0.81921,9.76222,-0.01249,7.0E-4,0.21411,2.146,40.75,-45.362,0.068,-4.792,2.612,5.0,63.4144,23.000332,120.219536,45.617,NaN,4.228,8.0,256.247,0 / 0,22709,2021-03-23 20:03:51:591
0.08622,1.12772,9.55924,-0.28113,0.87567,9.76343,-0.01931,0.02542,0.17268,2.198,39.374,-43.535,359.019,-5.123,1.649,5.0,60.9246,23.000332,120.219536,45.617,NaN,4.228,8.0,256.247,0 / 0,22809,2021-03-23 20:03:51:691
-0.17963,0.9936,9.81072,-0.19176,0.92454,9.76109,-0.02503,0.01927,0.14619,0.486,41.424,-44.442,1.101,-5.41,1.125,5.0,60.9246,23.000332,120.219536,45.617,NaN,4.228,8.0,256.247,0 / 0,22909,2021-03-23 20:03:51:791
-0.52452,0.9457,9.82509,-0.18429,0.91824,9.76183,-0.01919,0.0147,0.11955,1.313,41.016,-42.064,359.735,-5.373,1.082,5.0,60.9246,23.000332,120.219536,45.617,NaN,4.228,8.0,256.247,0 / 0,23009,2021-03-23 20:03:51:891
-0.69936,0.87385,9.74606,-0.24558,0.89918,9.76225,-0.02092,0.01752,0.12617,2.657,41.251,-40.697,357.473,-5.261,1.441,5.0,60.9246,23.000332,120.219536,45.617,NaN,4.228,8.0,256.247,0 / 0,23108,2021-03-23 20:03:51:990
-0.67541,0.99839,9.82509,-0.31457,0.87957,9.76206,-0.00819,0.01832,0.14531,2.563,41.3,-40.408,357.796,-5.146,1.846,5.0,60.8737,23.000332,120.219536,45.617,NaN,4.228,8.0,256.247,0 / 0,23209,2021-03-23 20:03:52:091
-0.85025,0.9936,9.89694,-0.37455,0.88602,9.75936,0.00206,0.01101,0.14827,2.699,43.236,-40.164,358.195,-5.184,2.198,5.0,60.8737,23.000332,120.219536,45.617,NaN,4.228,8.0,256.247,0 / 0,23309,2021-03-23 20:03:52:191
-0.60117,1.01037,9.61193,-0.47077,0.9147,9.75254,0.00872,-0.01182,0.14992,3.384,43.733,-38.155,358.592,-5.352,2.764,5.0,60.8737,23.000332,120.219536,45.617,NaN,4.228,8.0,256.247,0 / 0,23408,2021-03-23 20:03:52:290
-0.48141,0.93612,9.79156,-0.4863,0.95296,9.74812,0.00547,-0.00385,0.15637,3.171,42.602,-37.277,358.577,-5.577,2.856,5.0,60.4314,23.000332,120.219536,45.617,NaN,4.228,8.0,256.247,0 / 0,23508,2021-03-23 20:03:52:390
-0.7808,1.10138,9.72211,-0.48036,0.96714,9.74702,0.00462,0.0102,0.1559,4.18,43.213,-35.828,357.254,-5.66,2.821,5.0,60.4314,23.000332,120.219536,45.617,NaN,4.228,8.0,256.247,0 / 0,23608,2021-03-23 20:03:52:490
-0.77601,0.93133,9.53768,-0.51451,0.99138,9.74284,-0.00361,0.02072,0.15984,3.447,44.042,-37.641,358.807,-5.802,3.023,5.0,60.4314,23.000332,120.219536,45.617,NaN,4.228,8.0,256.247,0 / 0,23709,2021-03-23 20:03:52:591
-0.89576,0.86187,9.73648,-0.59571,0.99077,9.73827,-0.00371,0.02113,0.18509,7.052,45.792,-37.482,354.548,-5.799,3.501,5.0,61.626,23.000332,120.219536,45.617,NaN,4.228,8.0,256.247,0 / 0,23808,2021-03-23 20:03:52:690
-1.02749,0.81397,9.8682,-0.63589,0.98332,9.73648,0.00284,0.02163,0.18531,6.531,44.262,-36.286,354.413,-5.755,3.737,5.0,61.626,23.000332,120.219536,45.617,NaN,4.228,8.0,256.247,0 / 0,23908,2021-03-23 20:03:52:790
-0.93648,1.05108,9.84186,-0.69893,0.97906,9.73259,0.00972,0.00119,0.19055,7.735,44.908,-39.245,353.924,-5.73,4.108,5.0,61.626,23.000332,120.219536,45.617,NaN,4.228,8.0,256.247,0 / 0,24009,2021-03-23 20:03:52:891
-0.69218,0.9433,9.76761,-0.70271,0.99522,9.73068,0.0039,4.2E-4,0.19093,7.535,45.537,-37.828,353.975,-5.825,4.131,5.0,61.0561,23.000332,120.219536,45.617,NaN,4.228,8.0,256.247,0 / 0,24109,2021-03-23 20:03:52:991
-0.52213,1.07024,9.42511,-0.69081,0.99682,9.73137,-0.0073,-0.01106,0.18891,8.376,41.489,-36.807,353.147,-5.834,4.061,5.0,61.0561,23.000332,120.219536,45.617,NaN,4.228,8.0,256.247,0 / 0,24209,2021-03-23 20:03:53:091
-0.64188,0.93612,9.6742,-0.66711,0.99385,9.73333,-0.01241,-0.00739,0.18431,9.169,41.119,-36.409,351.666,-5.817,3.921,5.0,61.0561,23.000332,120.219536,45.617,NaN,4.228,8.0,256.247,0 / 0,24308,2021-03-23 20:03:53:190
-0.09101,0.9457,9.61672,-0.62992,0.97724,9.73749,-0.00808,-0.00706,0.18136,11.026,39.719,-35.887,348.737,-5.719,3.701,5.0,61.0561,23.000332,120.219536,45.617,NaN,4.228,8.0,256.247,0 / 0,24408,2021-03-23 20:03:53:290
-0.27783,0.93612,10.0646,-0.57987,0.9755,9.74077,-0.0024,0.00676,0.17449,9.736,37.167,-33.201,348.703,-5.709,3.407,5.0,61.1062,23.000332,120.219536,45.617,NaN,4.228,8.0,256.247,0 / 0,24508,2021-03-23 20:03:53:390
-0.39279,0.94809,9.86341,-0.50589,0.97696,9.74474,0.00928,0.0078,0.1568,9.405,36.938,-33.679,349.822,-5.717,2.972,5.0,61.1062,23.000332,120.219536,45.617,NaN,4.228,8.0,256.247,0 / 0,24608,2021-03-23 20:03:53:490
-0.13412,1.06306,9.32931,-0.47008,0.99451,9.74476,0.008,-0.00749,0.14707,9.432,37.348,-33.489,349.569,-5.82,2.762,5.0,61.1062,23.000332,120.219536,45.617,NaN,4.228,8.0,256.247,0 / 0,24709,2021-03-23 20:03:53:591
0.04072,0.88822,9.97838,-0.42694,1.01691,9.74443,-0.00527,-0.02551,0.11746,5.96,34.952,-31.9,353.135,-5.952,2.509,5.0,60.7417,23.000332,120.219536,45.617,NaN,4.228,8.0,256.247,0 / 0,24808,2021-03-23 20:03:53:690
0.54608,1.14209,9.53768,-0.29589,0.99819,9.75123,3.3E-4,-0.02963,0.10084,6.903,35.024,-33.864,351.147,-5.842,1.738,5.0,60.7417,23.000332,120.219536,45.617,NaN,4.228,8.0,256.247,0 / 0,24909,2021-03-23 20:03:53:791
0.83349,1.07264,9.88497,-0.17343,1.00394,9.75359,-0.01185,0.02126,0.06879,5.181,33.358,-33.138,353.053,-5.876,1.019,5.0,60.7417,23.000332,120.219536,45.617,NaN,4.228,8.0,256.247,0 / 0,25010,2021-03-23 20:03:53:892
0.32094,0.90977,9.76522,-0.1695,0.99949,9.75411,-0.0131,0.03094,0.04791,6.781,35.689,-35.122,350.785,-5.85,0.996,5.0,60.7909,23.000332,120.219536,45.617,NaN,4.228,8.0,256.247,0 / 0,25109,2021-03-23 20:03:53:991
-0.54129,1.0415,9.56403,-0.15806,0.98062,9.75622,0.00319,0.01923,0.01882,5.171,34.664,-36.715,353.486,-5.739,0.928,5.0,60.7909,23.000332,120.219536,45.617,NaN,4.228,8.0,256.247,0 / 0,25208,2021-03-23 20:03:54:090
-0.33531,1.02234,9.71731,-0.20305,1.00392,9.75302,-0.00307,0.01244,0.02459,2.099,34.199,-38.321,358.165,-5.876,1.193,5.0,60.7909,23.000332,120.219536,45.617,NaN,4.228,8.0,256.247,0 / 0,25309,2021-03-23 20:03:54:191
-0.44549,1.07024,9.57361,-0.21205,0.99934,9.75329,-0.02666,0.01314,0.03303,1.033,34.003,-38.811,359.77,-5.849,1.245,5.0,61.1941,23.000332,120.219536,45.617,NaN,4.228,8.0,256.247,0 / 0,25408,2021-03-23 20:03:54:290
-0.78798,0.81157,10.05263,-0.25047,0.98104,9.75424,-0.03318,-0.0072,0.02918,-0.458,35.557,-41.88,1.543,-5.741,1.471,5.0,61.1941,23.000332,120.219536,45.617,NaN,4.228,8.0,256.247,0 / 0,25509,2021-03-23 20:03:54:391
-0.31376,1.07264,9.92569,-0.30458,0.9247,9.7582,-0.00221,-0.05356,0.03146,-2.41,39.207,-43.168,4.455,-5.411,1.788,5.0,61.1941,23.000332,120.219536,45.617,NaN,4.228,8.0,256.247,0 / 0,25608,2021-03-23 20:03:54:490
0.69457,0.9936,9.83707,-0.27354,0.92265,9.75932,-2.0E-5,-0.05498,0.03429,-2.746,40.354,-43.748,5.499,-5.399,1.606,5.0,61.1941,23.000332,120.219536,45.617,NaN,4.228,8.0,256.247,0 / 0,25709,2021-03-23 20:03:54:591
1.04425,0.83073,9.71492,-0.09174,0.92518,9.76248,0.00349,0.0145,0.02828,-3.413,42.542,-41.887,4.864,-5.435,1.189,5.0,59.6679,23.000332,120.219536,45.617,NaN,4.228,8.0,256.247,0 / 0,25809,2021-03-23 20:03:54:691
0.02874,0.69182,10.22268,-0.08755,0.93058,9.76201,0.00924,0.04784,0.02297,-3.413,42.542,-41.887,4.151,-5.413,0.538,5.0,59.6679,23.000332,120.219536,45.617,NaN,4.228,8.0,256.247,0 / 0,25909,2021-03-23 20:03:54:791
-0.59159,0.9457,9.78677,-0.11213,0.93394,9.76143,0.01208,0.05381,0.00236,0.848,46.597,-40.631,359.402,-5.465,0.658,5.0,59.6679,23.000332,120.219536,45.617,NaN,4.228,8.0,256.247,0 / 0,26011,2021-03-23 20:03:54:893
-0.64907,0.89301,9.51134,-0.18365,0.94298,9.75948,0.0194,0.02539,0.00595,0.307,47.283,-38.257,0.812,-5.518,1.078,5.0,60.9666,23.000332,120.219536,45.617,NaN,4.228,8.0,256.247,0 / 0,26109,2021-03-23 20:03:54:991
-0.26106,0.75888,9.63588,-0.20816,0.96514,9.75682,0.02439,-0.02774,0.02363,2.019,48.676,-35.169,358.625,-5.648,1.222,5.0,60.9666,23.000332,120.219536,45.617,NaN,4.228,8.0,256.247,0 / 0,26208,2021-03-23 20:03:55:090
0.00479,1.32891,9.55205,-0.19221,0.97854,9.75581,0.03378,-0.02992,0.01897,2.019,48.676,-35.169,358.625,-5.648,1.222,5.0,60.9666,23.000332,120.219536,45.617,NaN,4.228,8.0,256.247,0 / 0,26308,2021-03-23 20:03:55:190
-0.10059,1.1373,9.65744,-0.13849,1.01739,9.75275,0.019,-0.01844,0.01136,2.29,47.875,-35.83,358.344,-5.955,0.814,5.0,59.8502,23.000332,120.219536,45.617,NaN,4.228,8.0,256.247,0 / 0,26409,2021-03-23 20:03:55:291
-0.06946,1.18521,9.56882,-0.09191,1.04374,9.75052,0.0107,-0.00398,0.02276,2.187,46.211,-36.032,358.081,-6.11,0.54,5.0,59.8502,23.000332,120.219536,45.617,NaN,4.228,8.0,256.247,0 / 0,26509,2021-03-23 20:03:55:391
0.24909,1.16365,9.62151,-0.08732,1.04797,9.7501,-0.00473,0.02952,0.02194,2.873,47.128,-36.073,356.97,-6.135,0.513,5.0,59.8502,23.000332,120.219536,45.617,NaN,4.228,8.0,256.247,0 / 0,26609,2021-03-23 20:03:55:491
-0.37363,1.11575,9.83467,-0.04941,1.0673,9.74827,-0.01719,0.05089,0.01752,1.762,44.663,-35.087,356.97,-6.135,0.513,5.0,59.8907,23.000332,120.219536,45.617,NaN,4.228,8.0,256.247,0 / 0,26710,2021-03-23 20:03:55:592
-0.94366,0.78044,9.8682,-0.16392,1.02632,9.75142,-0.02453,0.02572,0.02934,-0.837,43.585,-33.881,1.902,-6.007,0.963,5.0,59.8907,23.000332,120.219536,45.617,NaN,4.228,8.0,256.247,0 / 0,26809,2021-03-23 20:03:55:691
-0.4886,0.86187,10.25621,-0.25272,0.98831,9.75345,-0.02133,0.0018,0.03447,-0.484,44.068,-35.292,1.098,-5.784,1.484,5.0,59.8907,23.000332,120.219536,45.617,NaN,4.228,8.0,256.247,0 / 0,26909,2021-03-23 20:03:55:791
-0.08862,0.7517,9.70773,-0.25018,0.96398,9.75595,0.00324,-0.03749,0.02428,-0.917,42.235,-33.011,2.347,-5.641,1.469,5.0,59.8907,23.000332,120.219536,45.617,NaN,4.228,8.0,256.247,0 / 0,27008,2021-03-23 20:03:55:890
0.30896,0.80678,9.71252,-0.1831,0.95833,9.758,0.00585,-0.04539,0.02232,-2.449,44.277,-32.624,3.188,-5.608,1.075,5.0,61.0346,23.000332,120.219536,45.617,NaN,4.228,8.0,256.247,0 / 0,27109,2021-03-23 20:03:55:991
0.44309,0.8451,9.40116,-0.11153,0.95667,9.75924,0.00849,-0.01031,0.01788,-5.4,44.178,-31.907,6.525,-5.598,0.655,5.0,61.0346,23.000332,120.219536,45.617,NaN,4.228,8.0,256.247,0 / 0,27209,2021-03-23 20:03:56:091
0.18921,0.75888,9.70773,-0.08033,0.96664,9.75856,-0.00211,0.00605,0.00945,-4.58,45.239,-30.814,6.27,-5.657,0.472,5.0,61.0346,23.000332,120.219536,45.617,NaN,4.228,8.0,256.247,0 / 0,27309,2021-03-23 20:03:56:191
0.11496,1.09898,9.72211,-0.04615,0.96016,9.75942,0.00236,0.02199,0.00712,-4.649,45.79,-29.13,6.032,-5.619,0.271,5.0,61.0956,23.000332,120.219536,45.617,NaN,4.228,8.0,256.247,0 / 0,27409,2021-03-23 20:03:56:291
-0.22035,1.07503,9.5305,-0.04457,0.96547,9.75891,-0.00329,0.02993,0.00633,-4.629,45.72,-27.9,6.032,-5.65,0.262,5.0,61.0956,23.000332,120.219536,45.617,NaN,4.228,8.0,256.247,0 / 0,27509,2021-03-23 20:03:56:391
-0.18442,1.10377,9.80833,-0.08519,0.98072,9.75712,-0.0083,-0.00223,-0.00831,-6.629,46.849,-26.456,8.216,-5.734,0.28,5.0,61.0956,23.000332,120.219536,45.617,NaN,4.228,8.0,256.247,0 / 0,27610,2021-03-23 20:03:56:492
0.17484,0.95288,9.88018,-0.12073,0.96405,9.7584,-0.01179,-0.01947,-0.01198,-4.713,46.786,-26.731,6.042,-5.74,0.5,5.0,61.0846,23.000332,120.219536,45.617,NaN,4.228,8.0,256.247,0 / 0,27708,2021-03-23 20:03:56:590
0.15807,0.96725,9.74366,-0.1063,0.96155,9.75882,-0.01675,-0.02723,-0.01174,-5.871,46.919,-24.909,7.262,-5.627,0.624,5.0,61.0846,23.000332,120.219536,45.617,NaN,4.228,8.0,256.247,0 / 0,27809,2021-03-23 20:03:56:691
-0.06706,0.84271,9.71252,-0.02755,0.94392,9.76108,-0.02013,-0.02329,-0.01768,-5.927,46.59,-24.826,7.036,-5.523,0.162,5.0,61.0846,23.000332,120.219536,45.617,NaN,4.228,8.0,256.247,0 / 0,27912,2021-03-23 20:03:56:794
0.35447,0.69661,9.87299,0.00558,0.92514,9.76291,-0.02363,-0.01578,-0.01505,-7.094,47.202,-25.216,8.089,-5.413,-0.033,5.0,60.943,23.000332,120.219536,45.617,NaN,4.228,8.0,256.247,0 / 0,28009,2021-03-23 20:03:56:891
0.2443,0.86666,9.84425,0.02497,0.91115,9.7642,-0.01747,0.00301,-0.01126,-7.302,47.796,-24.291,7.897,-5.331,-0.147,5.0,60.943,23.000332,120.219536,45.617,NaN,4.228,8.0,256.247,0 / 0,28109,2021-03-23 20:03:56:991
0.02874,0.86906,9.67181,0.05234,0.87656,9.76726,-0.00427,0.02136,-0.01164,-5.611,50.189,-29.065,6.365,-5.128,-0.307,5.0,60.943,23.000332,120.219536,45.617,NaN,4.228,8.0,256.247,0 / 0,28211,2021-03-23 20:03:57:093
-0.5341,0.82834,9.94724,-0.02083,0.85292,9.76947,0.00269,0.01578,-0.00697,-5.176,50.411,-27.551,6.365,-4.99,0.122,5.0,60.943,23.000332,120.219536,45.617,NaN,4.228,8.0,256.247,0 / 0,28310,2021-03-23 20:03:57:192
-0.31376,0.83073,9.74126,-0.07452,0.83859,9.77045,0.01641,-0.02299,-0.00189,-2.872,52.805,-29.889,3.337,-4.905,0.437,5.0,59.6047,23.000332,120.219536,45.617,NaN,4.228,8.0,256.247,0 / 0,28409,2021-03-23 20:03:57:291
0.09341,0.6511,9.83946,-0.10408,0.82749,9.77112,0.0196,-0.02489,-0.00321,-1.971,51.235,-28.906,2.482,-4.84,0.61,5.0,59.6047,23.000332,120.219536,45.617,NaN,4.228,8.0,256.247,0 / 0,28509,2021-03-23 20:03:57:391
0.17724,0.62476,9.63109,-0.03989,0.83039,9.77135,0.02295,-0.01755,-9.3E-4,0.179,50.544,-32.927,0.144,-4.857,0.234,5.0,59.6047,23.000332,120.219536,45.617,NaN,4.228,8.0,256.247,0 / 0,28609,2021-03-23 20:03:57:491
0.18921,0.86666,9.78438,-0.00987,0.83447,9.77108,0.02548,-0.01058,-0.00318,1.906,51.528,-33.332,357.938,-4.881,0.058,5.0,61.2483,23.000332,120.219536,45.617,NaN,4.228,8.0,256.247,0 / 0,28708,2021-03-23 20:03:57:590
0.10059,0.77325,9.76761,0.03009,0.85082,9.76963,0.0235,0.00661,-0.00296,1.409,52.593,-33.288,358.866,-4.977,-0.176,5.0,61.2483,23.000332,120.219536,45.617,NaN,4.228,8.0,256.247,0 / 0,28809,2021-03-23 20:03:57:691
-0.23232,0.88343,10.0143,0.03092,0.86839,9.76808,0.0216,0.00814,6.8E-4,2.797,51.652,-35.634,356.759,-5.08,-0.181,5.0,61.2483,23.000332,120.219536,45.617,NaN,4.228,8.0,256.247,0 / 0,28909,2021-03-23 20:03:57:791
-0.02395,0.96725,9.37721,-0.01655,0.86942,9.76802,0.01625,-0.01427,-0.00582,4.599,53.067,-35.137,354.865,-5.065,-0.036,5.0,60.559,23.000332,120.219536,45.617,NaN,4.228,8.0,256.247,0 / 0,29008,2021-03-23 20:03:57:890
0.14131,0.92175,9.32931,-0.01625,0.87889,9.76717,0.00558,-0.01073,-0.00661,3.367,53.377,-34.934,356.989,-5.142,0.095,5.0,60.559,23.000332,120.219536,45.617,NaN,4.228,8.0,256.247,0 / 0,29110,2021-03-23 20:03:57:992
0.3401,0.87864,9.65265,0.02346,0.88861,9.76628,-0.01745,1.7E-4,-0.00132,3.419,54.29,-37.042,356.905,-5.199,-0.138,5.0,60.559,23.000332,120.219536,45.617,NaN,4.228,8.0,256.247,0 / 0,29209,2021-03-23 20:03:58:091
-0.04072,0.67745,9.97119,0.05652,0.88086,9.76685,-0.02575,0.01287,-0.00576,4.106,53.784,-34.724,355.778,-5.153,-0.332,5.0,60.3135,23.000332,120.219536,45.617,NaN,4.228,8.0,256.247,0 / 0,29309,2021-03-23 20:03:58:191
-0.17963,0.81157,9.86102,0.04752,0.83162,9.77121,-0.017,0.01197,-0.00953,3.205,55.64,-37.137,356.912,-4.865,-0.279,5.0,60.3135,23.000332,120.219536,45.617,NaN,4.228,8.0,256.247,0 / 0,29409,2021-03-23 20:03:58:291
-0.07425,0.6032,9.87539,0.00782,0.79736,9.77418,-0.01881,0.00671,-0.00463,4.202,55.232,-37.821,356.019,-4.664,-0.046,5.0,60.3135,23.000332,120.219536,45.617,NaN,4.228,8.0,256.247,0 / 0,29508,2021-03-23 20:03:58:390
-0.26106,0.53374,9.90652,-0.01524,0.74773,9.77809,-0.02106,0.00636,-0.00537,3.336,55.91,-38.992,357.139,-4.373,0.089,5.0,60.3135,23.000332,120.219536,45.617,NaN,4.228,8.0,256.247,0 / 0,29609,2021-03-23 20:03:58:491
-0.03114,0.77325,9.69336,-0.03359,0.72823,9.77952,-0.00971,-0.02388,-0.00575,2.736,52.33,-37.482,356.988,-4.259,0.197,5.0,61.3406,23.000332,120.219536,45.617,NaN,4.228,8.0,256.247,0 / 0,29709,2021-03-23 20:03:58:591
0.37124,0.74691,9.4802,-0.01306,0.71542,9.78051,-0.01023,-0.00544,-0.00138,0.616,48.939,-38.51,358.95,-4.184,0.077,5.0,61.3406,23.000332,120.219536,45.617,NaN,4.228,8.0,256.247,0 / 0,29808,2021-03-23 20:03:58:690
0.37603,0.75649,9.41074,0.07495,0.71547,9.78023,-0.00723,0.01064,-7.0E-4,1.445,47.537,-36.04,358.742,-4.152,-0.173,5.0,61.3406,23.000332,120.219536,45.617,NaN,4.228,8.0,256.247,0 / 0,29909,2021-03-23 20:03:58:791
-0.25867,0.5529,9.94724,0.09553,0.7159,9.78002,-0.00423,0.04366,-0.00894,0.785,42.432,-32.549,358.29,-4.186,-0.56,5.0,60.616,23.000332,120.219536,45.617,NaN,4.228,8.0,256.247,0 / 0,30008,2021-03-23 20:03:58:890
-0.61793,0.66547,10.50769,-0.0077,0.69455,9.78202,-5.6E-4,0.0396,-0.00643,0.236,41.537,-30.354,0.031,-4.061,0.045,5.0,60.616,23.000332,120.219536,45.617,NaN,4.228,8.0,256.247,0 / 0,30109,2021-03-23 20:03:58:991
-0.43591,0.72535,9.72689,-0.10381,0.6829,9.78229,0.02309,0.0088,0.00802,-0.672,39.301,-27.583,1.732,-3.958,0.481,5.0,60.616,23.000332,120.219536,45.617,NaN,4.228,8.0,256.247,0 / 0,30209,2021-03-23 20:03:59:091
-0.50776,0.62715,9.42751,-0.10931,0.69762,9.78119,0.01838,-0.01542,0.0096,-1.83,39.176,-26.671,3.227,-4.079,0.64,5.0,60.8602,23.000332,120.219536,45.617,NaN,4.228,8.0,256.247,0 / 0,30309,2021-03-23 20:03:59:191
0.17245,0.4595,9.90413,-0.08966,0.70893,9.78058,-0.00535,-0.04886,0.00872,-1.983,39.423,-23.644,3.127,-4.146,0.525,5.0,60.8602,23.000332,120.219536,45.617,NaN,4.228,8.0,256.247,0 / 0,30409,2021-03-23 20:03:59:291
0.34968,0.77086,9.79635,-0.06335,0.69109,9.78206,0.00452,-0.03029,0.01142,-3.646,40.335,-24.1,5.706,-4.041,0.371,5.0,60.8602,23.000332,120.219536,45.617,NaN,4.228,8.0,256.247,0 / 0,30509,2021-03-23 20:03:59:391
0.52213,0.66547,9.63349,-0.01019,0.68409,9.78276,0.0137,5.8E-4,0.01383,-2.982,40.352,-23.202,4.167,-4.0,0.06,5.0,60.8602,23.000332,120.219536,45.617,NaN,4.228,8.0,256.247,0 / 0,30608,2021-03-23 20:03:59:490
-0.57482,0.76846,9.60714,-0.00765,0.71971,9.7802,0.01859,0.02409,0.00645,-2.884,41.597,-23.863,3.956,-4.209,0.045,5.0,59.5642,23.000332,120.219536,45.617,NaN,4.228,8.0,256.247,0 / 0,30709,2021-03-23 20:03:59:591
-0.25148,0.65829,9.54247,-0.10529,0.75336,9.7771,0.00169,-7.0E-5,0.00714,-1.583,42.83,-21.317,2.865,-4.406,0.617,5.0,59.5642,23.000332,120.219536,45.617,NaN,4.228,8.0,256.247,0 / 0,30808,2021-03-23 20:03:59:690
-0.05988,0.79002,10.04783,-0.10997,0.75999,9.77654,-0.01339,0.00338,0.00751,-0.143,44.598,-22.385,0.304,-4.445,0.644,5.0,59.5642,23.000332,120.219536,45.617,NaN,4.228,8.0,256.247,0 / 0,30909,2021-03-23 20:03:59:791
-0.1461,0.53374,10.12687,-0.08582,0.74012,9.77831,-0.00996,9.1E-4,-9.1E-4,-2.039,44.25,-19.259,2.738,-4.328,0.503,5.0,59.8706,23.000332,120.219536,45.617,NaN,4.228,8.0,256.247,0 / 0,31010,2021-03-23 20:03:59:892
-0.28501,0.50021,9.48499,-0.09531,0.70105,9.7811,0.00434,0.00401,-0.00436,-0.067,46.004,-19.909,0.236,-4.099,0.558,5.0,59.8706,23.000332,120.219536,45.617,NaN,4.228,8.0,256.247,0 / 0,31109,2021-03-23 20:03:59:991
-0.0982,0.73733,9.65504,-0.11804,0.70269,9.78073,-0.00135,-0.01907,0.00479,-0.291,47.995,-20.237,0.28,-4.109,0.691,5.0,59.8706,23.000332,120.219536,45.617,NaN,4.228,8.0,256.247,0 / 0,31209,2021-03-23 20:04:00:091
0.03114,0.84031,9.7748,-0.11581,0.7083,9.78035,-0.0015,-0.02331,0.00749,-0.158,47.591,-18.854,0.262,-4.142,0.678,5.0,60.7706,23.000332,120.219536,45.617,NaN,4.228,8.0,256.247,0 / 0,31309,2021-03-23 20:04:00:191
-0.11496,0.8451,9.57361,-0.05934,0.70729,9.78093,-0.00533,-0.01751,7.0E-4,0.16,50.946,-21.851,0.146,-4.136,0.348,5.0,60.7706,23.000332,120.219536,45.617,NaN,4.228,8.0,256.247,0 / 0,31409,2021-03-23 20:04:00:291
0.21795,0.77804,9.53289,-0.05341,0.70678,9.781,-0.00306,-0.02592,-0.0025,0.934,53.439,-24.175,359.088,-4.133,0.313,5.0,60.7706,23.000332,120.219536,45.617,NaN,4.228,8.0,256.247,0 / 0,31509,2021-03-23 20:04:00:391
0.47662,0.59123,9.91611,-0.0124,0.71973,9.7802,-0.00565,-0.00535,0.00561,1.112,56.571,-27.275,359.059,-4.209,0.073,5.0,60.4783,23.000332,120.219536,45.617,NaN,4.228,8.0,256.247,0 / 0,31609,2021-03-23 20:04:00:491
0.19879,0.79002,9.97359,0.05073,0.7142,9.78048,-0.00266,0.0095,0.00701,-0.166,56.257,-27.43,359.861,-4.176,-0.297,5.0,60.4783,23.000332,120.219536,45.617,NaN,4.228,8.0,256.247,0 / 0,31708,2021-03-23 20:04:00:590
-0.26825,0.77804,10.03346,0.05982,0.70874,9.78082,0.00491,0.02757,-0.00519,-1.241,56.702,-31.571,0.779,-4.144,-0.35,5.0,60.4783,23.000332,120.219536,45.617,NaN,4.228,8.0,256.247,0 / 0,31808,2021-03-23 20:04:00:690
-0.28022,0.83073,9.576,-0.0128,0.71188,9.78077,0.00303,0.01828,-0.00566,0.476,57.346,-34.262,0.043,-4.163,0.075,5.0,60.8075,23.000332,120.219536,45.617,NaN,4.228,8.0,256.247,0 / 0,31909,2021-03-23 20:04:00:791
-0.28022,0.56728,9.69336,-0.0776,0.70785,9.78076,-3.7E-4,-0.00506,-0.00153,-0.165,59.198,-37.82,0.28,-4.139,0.455,5.0,60.8075,23.000332,120.219536,45.617,NaN,4.228,8.0,256.247,0 / 0,32009,2021-03-23 20:04:00:891
-0.22753,0.90259,9.69576,-0.09544,0.70165,9.78105,0.00555,-0.01174,-0.00149,-1.001,57.979,-38.583,1.304,-4.103,0.559,5.0,60.8075,23.000332,120.219536,45.617,NaN,4.228,8.0,256.247,0 / 0,32110,2021-03-23 20:04:00:992
0.10299,0.67505,9.70773,-0.08701,0.71443,9.78021,0.01004,-0.01795,-6.5E-4,-2.517,57.308,-42.909,3.228,-4.178,0.51,5.0,60.8075,23.000332,120.219536,45.617,NaN,4.228,8.0,256.247,0 / 0,32209,2021-03-23 20:04:01:091
0.10299,0.53135,10.09095,-0.02289,0.73121,9.77933,0.01049,-0.0012,-0.00277,-1.894,58.833,-43.666,1.939,-4.276,0.134,5.0,60.4223,23.000332,120.219536,45.617,NaN,4.228,8.0,256.247,0 / 0,32308,2021-03-23 20:04:01:190
0.0,0.57686,9.85144,-0.01652,0.72633,9.7797,0.01996,0.01138,-0.00118,-3.15,57.994,-45.829,2.877,-4.248,0.097,5.0,60.4223,23.000332,120.219536,45.617,NaN,4.228,8.0,256.247,0 / 0,32409,2021-03-23 20:04:01:291
-0.07904,0.79002,9.52331,-0.02568,0.75754,9.77731,0.01179,0.01024,-0.00233,-3.267,58.171,-44.703,2.912,-4.43,0.151,5.0,60.4223,23.000332,120.219536,45.617,NaN,4.228,8.0,256.247,0 / 0,32508,2021-03-23 20:04:01:390
0.03353,0.72056,9.89694,-0.04519,0.7766,9.77575,-0.00747,0.01074,-0.00377,-2.398,58.086,-45.866,2.062,-4.542,0.265,5.0,60.4693,23.000332,120.219536,45.617,NaN,4.228,8.0,256.247,0 / 0,32609,2021-03-23 20:04:01:491
-0.36166,0.78762,9.72211,-0.04861,0.7663,9.77654,-0.00551,0.00916,-0.00191,-4.036,55.952,-43.505,4.072,-4.482,0.285,5.0,60.4693,23.000332,120.219536,45.617,NaN,4.228,8.0,256.247,0 / 0,32708,2021-03-23 20:04:01:590
-0.21556,0.62955,9.6742,-0.08741,0.76161,9.77664,-0.00499,-0.00857,-0.00157,-2.829,55.748,-44.188,3.278,-4.454,0.512,5.0,60.4693,23.000332,120.219536,45.617,NaN,4.228,8.0,256.247,0 / 0,32808,2021-03-23 20:04:01:690
-0.21316,0.62715,9.70534,-0.0999,0.75643,9.77692,-0.00596,-0.01343,-0.00448,-2.869,55.516,-45.778,3.344,-4.424,0.585,5.0,60.2348,23.000332,120.219536,45.617,NaN,4.228,8.0,256.247,0 / 0,32909,2021-03-23 20:04:01:791
0.04072,0.85468,9.96161,-0.10208,0.74086,9.77809,0.00266,-0.00867,0.00306,-2.349,53.848,-45.245,2.47,-4.333,0.598,5.0,60.2348,23.000332,120.219536,45.617,NaN,4.228,8.0,256.247,0 / 0,33009,2021-03-23 20:04:01:891
0.0958,0.72056,9.62391,-0.05234,0.74837,9.77791,8.7E-4,0.00409,0.00158,-0.865,54.182,-45.414,1.241,-4.377,0.307,5.0,60.2348,23.000332,120.219536,45.617,NaN,4.228,8.0,256.247,0 / 0,33109,2021-03-23 20:04:01:991
-0.2922,0.7517,9.88018,-0.04762,0.74764,9.77799,-0.01087,0.00684,-0.00505,1.108,52.085,-44.377,359.185,-4.372,0.279,5.0,60.5301,23.000332,120.219536,45.617,NaN,4.228,8.0,256.247,0 / 0,33210,2021-03-23 20:04:02:092
-0.21795,0.90019,9.81791,-0.06828,0.74516,9.77806,-0.00865,0.00339,-0.00376,-1.428,50.895,-44.493,1.382,-4.358,0.4,5.0,60.5301,23.000332,120.219536,45.617,NaN,4.228,8.0,256.247,0 / 0,33309,2021-03-23 20:04:02:191
0.09101,0.51937,9.88497,-0.09305,0.73407,9.7787,-0.00312,-0.00563,0.00146,-0.248,50.561,-45.511,0.462,-4.293,0.545,5.0,60.5301,23.000332,120.219536,45.617,NaN,4.228,8.0,256.247,0 / 0,33409,2021-03-23 20:04:02:291
-0.42393,0.58165,9.8682,-0.08162,0.71423,9.78027,-5.2E-4,0.00399,-0.00379,0.623,52.013,-48.521,359.389,-4.177,0.478,5.0,60.5301,23.000332,120.219536,45.617,NaN,4.228,8.0,256.247,0 / 0,33509,2021-03-23 20:04:02:391
-0.1461,0.71817,9.75563,-0.10564,0.71489,9.77999,0.00962,-0.01832,-0.00272,-0.327,50.462,-50.796,0.589,-4.181,0.619,5.0,62.1965,23.000332,120.219536,45.617,NaN,4.228,8.0,256.247,0 / 0,33609,2021-03-23 20:04:02:491
0.21316,0.96486,9.60475,-0.09699,0.72611,9.77925,0.00909,-0.00907,-7.4E-4,2.002,49.422,-50.697,358.374,-4.246,0.568,5.0,62.1965,23.000332,120.219536,45.617,NaN,4.228,8.0,256.247,0 / 0,33709,2021-03-23 20:04:02:591
-0.16287,0.90259,9.22153,-0.04642,0.76347,9.77678,-0.00494,0.01787,-0.00172,3.565,48.76,-50.574,355.931,-4.465,0.272,5.0,62.1965,23.000332,120.219536,45.617,NaN,4.228,8.0,256.247,0 / 0,33809,2021-03-23 20:04:02:691
-0.42153,0.61518,9.55924,-0.06222,0.77434,9.77583,-0.01624,0.01767,0.00328,4.881,49.5,-52.376,354.961,-4.529,0.365,5.0,60.9938,23.000332,120.219536,45.617,NaN,4.228,8.0,256.247,0 / 0,33908,2021-03-23 20:04:02:790
-0.64428,0.73014,10.00712,-0.13738,0.75673,9.77644,-0.01481,0.00609,0.01132,3.549,48.298,-50.5,356.373,-4.426,0.805,5.0,60.9938,23.000332,120.219536,45.617,NaN,4.228,8.0,256.247,0 / 0,34009,2021-03-23 20:04:02:891
-0.55566,0.82115,9.89694,-0.2251,0.74137,9.776,-0.01002,-0.01662,0.01463,5.266,46.916,-47.333,355.559,-4.336,1.319,5.0,60.9938,23.000332,120.219536,45.617,NaN,4.228,8.0,256.247,0 / 0,34109,2021-03-23 20:04:02:991
-0.2419,0.65589,10.05023,-0.24806,0.72301,9.77681,-0.00647,-0.02054,0.01836,7.056,47.885,-47.988,353.472,-4.336,1.319,5.0,61.3794,23.000332,120.219536,45.617,NaN,4.228,8.0,256.247,0 / 0,34209,2021-03-23 20:04:03:091
-0.16766,0.53614,10.13406,-0.2349,0.70491,9.77846,3.4E-4,-0.01578,0.03594,7.085,49.051,-48.399,353.627,-4.122,1.376,5.0,61.3794,23.000332,120.219536,45.617,NaN,4.228,8.0,256.247,0 / 0,34309,2021-03-23 20:04:03:191
-0.12933,0.87385,9.48499,-0.20473,0.68719,9.7804,0.00902,-0.01113,0.0335,8.591,51.617,-48.004,351.767,-4.018,1.199,5.0,61.3794,23.000332,120.219536,45.617,NaN,4.228,8.0,256.247,0 / 0,34408,2021-03-23 20:04:03:290
0.12215,0.87145,9.67181,-0.20045,0.70997,9.77886,9.3E-4,-0.00694,0.04046,8.55,49.964,-49.493,351.491,-4.152,1.174,5.0,62.8593,23.000332,120.219536,45.617,NaN,4.228,8.0,256.247,0 / 0,34509,2021-03-23 20:04:03:391
-0.10299,0.76367,9.74126,-0.14172,0.71726,9.77936,0.0058,0.0148,0.03804,10.715,49.813,-50.595,349.165,-4.194,0.83,5.0,62.8593,23.000332,120.219536,45.617,NaN,4.228,8.0,256.247,0 / 0,34609,2021-03-23 20:04:03:491
0.16766,0.5529,9.7724,-0.12247,0.71793,9.77957,0.01716,0.018,0.02724,9.794,49.316,-49.571,349.884,-4.198,0.717,5.0,62.8593,23.000332,120.219536,45.617,NaN,4.228,8.0,256.247,0 / 0,34708,2021-03-23 20:04:03:590
0.25867,1.05587,9.3341,-0.12138,0.72614,9.77898,0.0335,-0.00237,0.02313,11.827,47.903,-52.342,347.621,-4.246,0.711,5.0,62.8593,23.000332,120.219536,45.617,NaN,4.228,8.0,256.247,0 / 0,34810,2021-03-23 20:04:03:692
0.11496,1.43908,9.19519,-0.13792,0.76491,9.7758,0.03173,-0.00474,0.01718,12.499,47.991,-51.974,347.759,-4.474,0.808,5.0,61.9302,23.000332,120.219536,45.617,NaN,4.228,8.0,256.247,0 / 0,34909,2021-03-23 20:04:03:791
0.08862,0.9936,9.63588,-0.1269,0.7801,9.77475,-0.02634,-0.01405,0.01015,13.601,49.952,-53.094,346.171,-4.563,0.744,5.0,61.9302,23.000332,120.219536,45.617,NaN,4.228,8.0,256.247,0 / 0,35009,2021-03-23 20:04:03:891
0.03593,0.77804,9.79156,-0.11551,0.76644,9.77597,-0.04319,-0.02234,0.01063,12.317,50.063,-55.613,348.193,-4.483,0.677,5.0,61.9302,23.000332,120.219536,45.617,NaN,4.228,8.0,256.247,0 / 0,35109,2021-03-23 20:04:03:991
0.37363,0.46189,10.05263,-0.09057,0.7134,9.78025,-0.03872,-0.00388,0.00692,12.125,52.508,-58.571,348.67,-4.172,0.531,5.0,62.2508,23.000332,120.219536,45.617,NaN,4.228,8.0,256.247,0 / 0,35209,2021-03-23 20:04:04:091
0.28262,0.53135,10.38315,-0.08096,0.67301,9.78319,-0.01347,0.00666,0.00226,10.741,52.411,-55.318,349.272,-3.935,0.474,5.0,62.2508,23.000332,120.219536,45.617,NaN,4.228,8.0,256.247,0 / 0,35309,2021-03-23 20:04:04:191
-0.50776,0.56967,9.97598,-0.08198,0.67103,9.78332,0.02089,0.01277,1.6E-4,9.122,52.609,-56.043,351.446,-3.924,0.48,5.0,62.2508,23.000332,120.219536,45.617,NaN,4.228,8.0,256.247,0 / 0,35409,2021-03-23 20:04:04:291
-0.09101,0.56967,9.50415,-0.09958,0.68896,9.78191,0.02553,-0.01096,0.00423,10.479,54.565,-56.612,350.911,-4.029,0.583,5.0,61.0574,23.000332,120.219536,45.617,NaN,4.228,8.0,256.247,0 / 0,35509,2021-03-23 20:04:04:391
0.02395,0.17209,9.15687,-0.08908,0.69944,9.78127,-0.01558,-0.01467,1.0E-4,9.666,54.83,-57.087,350.861,-4.09,0.522,5.0,61.0574,23.000332,120.219536,45.617,NaN,4.228,8.0,256.247,0 / 0,35608,2021-03-23 20:04:04:490
0.28741,0.51219,9.6263,-0.07888,0.68792,9.78217,0.00982,-0.00425,-0.00146,10.043,55.096,-59.677,350.85,-4.022,0.462,5.0,61.0574,23.000332,120.219536,45.617,NaN,4.228,8.0,256.247,0 / 0,35709,2021-03-23 20:04:04:591
-0.06227,0.4595,9.73648,-0.07262,0.70675,9.78088,0.01244,0.02893,-2.0E-4,9.516,55.349,-58.805,350.812,-4.133,0.425,5.0,63.4468,23.000332,120.219536,45.617,NaN,4.228,8.0,256.247,0 / 0,35809,2021-03-23 20:04:04:691
-0.15808,0.48105,10.27776,-0.07349,0.70425,9.78105,0.00521,0.02644,-0.00613,10.156,53.23,-60.344,350.519,-4.118,0.431,5.0,63.4468,23.000332,120.219536,45.617,NaN,4.228,8.0,256.247,0 / 0,35908,2021-03-23 20:04:04:790
-0.27304,0.53374,10.10292,-0.09317,0.67662,9.78284,0.01313,-0.0058,-0.00572,11.671,53.548,-60.733,348.879,-3.956,0.546,5.0,63.4468,23.000332,120.219536,45.617,NaN,4.228,8.0,256.247,0 / 0,36009,2021-03-23 20:04:04:891
0.12933,0.8451,9.24069,-0.09208,0.68282,9.78242,0.00934,-0.01399,-3.4E-4,12.008,53.003,-62.682,348.735,-3.993,0.539,5.0,63.4468,23.000332,120.219536,45.617,NaN,4.228,8.0,256.247,0 / 0,36109,2021-03-23 20:04:04:991
-0.18442,0.41399,9.67181,-0.05327,0.66105,9.7842,-0.03466,-0.01558,-0.01504,11.711,49.191,-62.521,347.627,-3.865,0.312,5.0,62.1567,23.000332,120.219536,45.617,NaN,4.228,8.0,256.247,0 / 0,36209,2021-03-23 20:04:05:091
-0.42393,0.31819,9.59277,-0.04301,0.60852,9.78766,-0.03755,-0.02978,-0.01992,13.447,50.506,-62.05,346.914,-3.558,0.252,5.0,62.1567,23.000332,120.219536,45.617,NaN,4.228,8.0,256.247,0 / 0,36309,2021-03-23 20:04:05:191
0.39758,0.33256,10.28016,-0.0399,0.52545,9.79248,-0.01407,-0.03317,-0.00274,13.542,48.278,-60.162,344.948,-3.071,0.233,5.0,62.1567,23.000332,120.219536,45.617,NaN,4.228,8.0,256.247,0 / 0,36409,2021-03-23 20:04:05:291
0.3401,0.62715,10.12687,0.04541,0.46149,9.79568,0.00556,-0.01978,-0.0025,12.898,45.422,-56.639,344.438,-2.697,-0.266,5.0,61.6614,23.000332,120.219536,45.617,NaN,4.228,8.0,256.247,0 / 0,36509,2021-03-23 20:04:05:391
0.29699,0.67984,9.2838,0.08512,0.47206,9.79491,0.02265,0.00373,-0.01624,15.459,46.644,-52.924,342.652,-2.759,-0.498,5.0,61.6614,23.000332,120.219536,45.617,NaN,4.228,8.0,256.247,0 / 0,36609,2021-03-23 20:04:05:491
0.19161,0.8451,9.16166,0.11703,0.54517,9.79079,0.02067,0.01626,-0.01231,15.905,47.861,-53.571,341.898,-3.187,-0.685,5.0,61.6614,23.000332,120.219536,45.617,NaN,4.228,8.0,256.247,0 / 0,36709,2021-03-23 20:04:05:591
-0.12694,0.59362,10.25621,0.08054,0.62325,9.78649,-0.00919,0.01112,-0.01541,15.781,46.023,-49.786,341.51,-3.644,-0.471,5.0,62.1625,23.000332,120.219536,45.617,NaN,4.228,8.0,256.247,0 / 0,36809,2021-03-23 20:04:05:691
-0.31615,0.78044,9.91371,0.04262,0.61534,9.78723,-0.00952,-0.00409,-0.01775,17.262,47.479,-48.663,340.995,-3.598,-0.249,5.0,62.1625,23.000332,120.219536,45.617,NaN,4.228,8.0,256.247,0 / 0,36909,2021-03-23 20:04:05:791
0.20119,0.96486,9.76043,0.00353,0.61799,9.78716,0.01291,-0.00977,-0.00708,13.545,48.39,-46.73,344.594,-3.613,-0.021,5.0,62.1625,23.000332,120.219536,45.617,NaN,4.228,8.0,256.247,0 / 0,37009,2021-03-23 20:04:05:891
0.00479,0.37327,9.66941,0.03891,0.64694,9.78521,0.00833,-0.00306,-0.00727,13.545,48.39,-46.73,344.594,-3.613,-0.021,5.0,62.891,23.000332,120.219536,45.617,NaN,4.228,8.0,256.247,0 / 0,37109,2021-03-23 20:04:05:991
-0.2443,0.28705,10.06939,0.04829,0.63246,9.78612,0.00459,-0.00918,-0.01917,11.886,49.189,-40.418,346.669,-3.698,-0.283,5.0,62.891,23.000332,120.219536,45.617,NaN,4.228,8.0,256.247,0 / 0,37208,2021-03-23 20:04:06:090
0.01437,0.18885,10.0646,0.01025,0.54626,9.79142,-0.0026,-0.02287,-0.01155,11.319,46.96,-37.357,347.301,-3.193,-0.06,5.0,62.891,23.000332,120.219536,45.617,NaN,4.228,8.0,256.247,0 / 0,37308,2021-03-23 20:04:06:190
0.24669,-0.06742,9.91611,0.03444,0.45842,9.79587,-0.00748,-0.01597,-6.5E-4,12.144,46.719,-33.982,345.98,-2.679,-0.201,5.0,62.891,23.000332,120.219536,45.617,NaN,4.228,8.0,256.247,0 / 0,37408,2021-03-23 20:04:06:290
-0.20119,0.24154,9.29818,0.05881,0.41425,9.79772,-5.7E-4,-0.01227,-0.00546,10.83,47.114,-34.107,346.964,-2.421,-0.344,5.0,63.6252,23.000332,120.219536,45.617,NaN,4.228,8.0,256.247,0 / 0,37508,2021-03-23 20:04:06:390
-0.20119,0.14814,9.72929,0.0359,0.39328,9.7987,-0.00218,-0.00501,0.01377,11.065,46.432,-30.904,346.661,-2.323,-0.362,5.0,63.6252,23.000332,120.219536,45.617,NaN,4.228,8.0,256.247,0 / 0,37609,2021-03-23 20:04:06:491
-0.71852,0.30142,10.18914,-0.02261,0.36581,9.7998,-0.00181,0.00665,0.02701,9.144,47.349,-29.303,349.468,-2.138,0.132,5.0,63.6252,23.000332,120.219536,45.617,NaN,4.228,8.0,256.247,0 / 0,37709,2021-03-23 20:04:06:591
-0.28262,0.29424,9.64067,-0.09188,0.35835,9.79967,4.2E-4,-0.00654,0.05139,9.524,47.133,-28.467,348.532,-2.094,0.537,5.0,62.8397,23.000332,120.219536,45.617,NaN,4.228,8.0,256.247,0 / 0,37809,2021-03-23 20:04:06:691
-0.45028,0.10742,10.10292,-0.18744,0.34097,9.79893,-0.00414,0.03179,0.07171,7.5,44.736,-26.281,350.715,-1.993,1.096,5.0,62.8397,23.000332,120.219536,45.617,NaN,4.228,8.0,256.247,0 / 0,37908,2021-03-23 20:04:06:790
-0.67541,0.0212,9.64067,-0.33304,0.29799,9.79646,0.00425,0.06514,0.12347,8.181,45.245,-26.821,351.216,-1.741,1.947,5.0,62.8397,23.000332,120.219536,45.617,NaN,4.228,8.0,256.247,0 / 0,38009,2021-03-23 20:04:06:891
-2.11486,0.09544,9.45146,-0.43133,0.28903,9.7929,9.8E-4,0.08047,0.14221,8.698,46.14,-25.987,350.473,-1.689,2.522,5.0,62.2016,23.000332,120.219536,45.617,NaN,4.228,8.0,256.247,0 / 0,38109,2021-03-23 20:04:06:991
-1.76996,-0.15364,9.76043,-0.54933,0.28607,9.78707,-0.01479,0.00631,0.20202,10.123,43.7,-25.66,349.213,-1.672,3.213,5.0,62.2016,23.000332,120.219536,45.617,NaN,4.228,8.0,256.247,0 / 0,38208,2021-03-23 20:04:07:090
-1.1209,0.44273,10.28255,-0.58668,0.27286,9.78528,-0.01434,-0.01421,0.22514,8.358,46.655,-27.701,352.476,-1.594,3.431,5.0,62.2016,23.000332,120.219536,45.617,NaN,4.228,8.0,256.247,0 / 0,38308,2021-03-23 20:04:07:190
-0.33052,0.59123,10.02628,-0.57397,0.27094,9.78609,-0.00652,-0.02088,0.24975,9.757,46.052,-29.137,349.961,-1.583,3.357,5.0,62.92,23.000332,120.219536,45.617,NaN,4.228,8.0,256.247,0 / 0,38409,2021-03-23 20:04:07:291
-0.69218,0.57207,9.5305,-0.54295,0.28474,9.78747,0.00474,0.01423,0.25451,8.766,45.02,-27.165,350.707,-1.664,3.175,5.0,62.92,23.000332,120.219536,45.617,NaN,4.228,8.0,256.247,0 / 0,38509,2021-03-23 20:04:07:391
-1.38675,0.49063,9.60714,-0.58122,0.32581,9.78399,0.01092,0.06113,0.27019,11.799,43.746,-27.343,346.984,-1.904,3.4,5.0,62.92,23.000332,120.219536,45.617,NaN,4.228,8.0,256.247,0 / 0,38609,2021-03-23 20:04:07:491
-1.54722,0.54811,10.13166,-0.62162,0.34496,9.78085,0.0051,0.05069,0.28251,10.574,45.785,-28.804,349.0,-2.016,3.637,5.0,62.92,23.000332,120.219536,45.617,NaN,4.228,8.0,256.247,0 / 0,38708,2021-03-23 20:04:07:590
-1.16401,0.31579,9.90174,-0.68362,0.36734,9.77589,-0.01055,0.01545,0.30085,8.786,43.547,-29.012,351.123,-2.103,3.841,5.0,63.2338,23.000332,120.219536,45.617,NaN,4.228,8.0,256.247,0 / 0,38809,2021-03-23 20:04:07:691
-1.05623,0.24633,9.71731,-0.71083,0.37894,9.77351,-0.00859,0.01358,0.31396,9.26,44.797,-31.387,351.712,-2.214,4.16,5.0,63.2338,23.000332,120.219536,45.617,NaN,4.228,8.0,256.247,0 / 0,38908,2021-03-23 20:04:07:790
-1.14245,0.09065,9.90174,-0.76354,0.37647,9.76963,-9.5E-4,0.02213,0.34089,8.34,44.682,-33.479,353.336,-2.2,4.469,5.0,63.2338,23.000332,120.219536,45.617,NaN,4.228,8.0,256.247,0 / 0,39009,2021-03-23 20:04:07:891
-1.53285,0.08347,9.87779,-0.84201,0.3731,9.76331,0.00153,0.03207,0.35532,9.54,47.104,-36.576,352.021,-2.18,4.929,5.0,62.9268,23.000332,120.219536,45.617,NaN,4.228,8.0,256.247,0 / 0,39110,2021-03-23 20:04:07:992
-1.81787,-0.06982,9.24548,-0.96138,0.34975,9.75314,-0.01164,0.06198,0.38305,8.548,47.2,-37.763,353.828,-2.044,5.63,5.0,62.9268,23.000332,120.219536,45.617,NaN,4.228,8.0,256.247,0 / 0,39209,2021-03-23 20:04:08:091
-2.0957,-0.32609,9.75803,-1.05641,0.32268,9.74424,-0.00796,0.06471,0.39689,9.443,47.963,-42.038,354.884,-1.886,6.187,5.0,62.9268,23.000332,120.219536,45.617,NaN,4.228,8.0,256.247,0 / 0,39309,2021-03-23 20:04:08:191
-1.98073,-0.44824,9.44188,-1.22352,0.27329,9.72619,-0.01886,0.03519,0.44053,9.493,50.499,-46.247,356.443,-1.597,7.17,5.0,63.666,23.000332,120.219536,45.617,NaN,4.228,8.0,256.247,0 / 0,39409,2021-03-23 20:04:08:291
-1.03707,-0.28777,10.02867,-1.25923,0.29939,9.72086,-0.00767,0.02411,0.46102,9.736,48.662,-46.747,355.602,-1.749,7.381,5.0,63.666,23.000332,120.219536,45.617,NaN,4.228,8.0,256.247,0 / 0,39508,2021-03-23 20:04:08:390
-0.89816,-0.12969,10.21788,-1.2586,0.32286,9.72019,8.2E-4,0.01658,0.44963,11.147,48.124,-48.563,354.684,-1.887,7.378,5.0,63.666,23.000332,120.219536,45.617,NaN,4.228,8.0,256.247,0 / 0,39608,2021-03-23 20:04:08:490
-0.49099,-0.31651,9.48739,-1.24272,0.37293,9.72044,0.00299,0.01638,0.43651,11.761,50.274,-51.934,354.169,-2.179,7.285,5.0,62.9261,23.000332,120.219536,45.617,NaN,4.228,8.0,256.247,0 / 0,39711,2021-03-23 20:04:08:593
-0.62033,-0.62787,9.66223,-1.22042,0.41179,9.7217,-0.00158,0.04377,0.42522,12.907,50.58,-52.355,353.116,-2.407,7.155,5.0,62.9261,23.000332,120.219536,45.617,NaN,4.228,8.0,256.247,0 / 0,39809,2021-03-23 20:04:08:691
-0.79277,-0.59434,9.83946,-1.22786,0.42569,9.72016,-0.001,0.05547,0.42093,14.306,49.239,-54.239,352.104,-2.488,7.2,5.0,62.9261,23.000332,120.219536,45.617,NaN,4.228,8.0,256.247,0 / 0,39909,2021-03-23 20:04:08:791
-0.64667,-0.43866,9.9664,-1.16685,0.27643,9.73306,-0.01024,0.02836,0.40586,15.583,49.505,-54.601,349.736,-1.615,6.836,5.0,62.9261,23.000332,120.219536,45.617,NaN,4.228,8.0,256.247,0 / 0,40008,2021-03-23 20:04:08:890
-0.54608,0.13856,9.85383,-1.09395,0.17169,9.74393,-0.01389,0.01373,0.3925,16.767,48.387,-55.229,347.613,-1.003,6.406,5.0,63.7807,23.000332,120.219536,45.617,NaN,4.228,8.0,256.247,0 / 0,40109,2021-03-23 20:04:08:991
-0.66104,0.22717,9.89455,-1.0437,0.17015,9.74947,-0.0059,0.02006,0.39068,17.038,45.337,-53.712,346.356,-0.994,6.11,5.0,63.7807,23.000332,120.219536,45.617,NaN,4.228,8.0,256.247,0 / 0,40209,2021-03-23 20:04:09:091
-0.65386,0.26789,9.61672,-0.95915,0.22558,9.75703,-0.00147,0.00876,0.386,17.303,45.579,-57.13,346.524,-1.318,5.614,5.0,63.7807,23.000332,120.219536,45.617,NaN,4.228,8.0,256.247,0 / 0,40309,2021-03-23 20:04:09:191
-0.74008,0.39722,9.71013,-0.89656,0.27082,9.76182,-0.00485,0.02184,0.37672,17.613,45.189,-56.277,344.628,-1.582,5.248,5.0,61.9915,23.000332,120.219536,45.617,NaN,4.228,8.0,256.247,0 / 0,40408,2021-03-23 20:04:09:290
-0.56524,0.42597,9.72689,-0.88781,0.29041,9.76206,-0.01021,0.029,0.38717,18.739,44.913,-56.072,343.475,-1.697,5.196,5.0,61.9915,23.000332,120.219536,45.617,NaN,4.228,8.0,256.247,0 / 0,40509,2021-03-23 20:04:09:391
-0.73289,0.44752,9.6742,-0.84256,0.33868,9.76452,-0.00983,0.03939,0.37366,21.027,43.832,-58.011,340.904,-1.979,4.932,5.0,61.9915,23.000332,120.219536,45.617,NaN,4.228,8.0,256.247,0 / 0,40609,2021-03-23 20:04:09:491
-0.65625,0.29663,9.80833,-0.84139,0.39515,9.76249,-0.00685,0.02546,0.36987,22.267,43.035,-55.721,339.304,-2.309,4.926,5.0,63.4834,23.000332,120.219536,45.617,NaN,4.228,8.0,256.247,0 / 0,40710,2021-03-23 20:04:09:592
-0.82151,0.35172,9.92569,-0.84244,0.40177,9.76213,-0.01044,0.0243,0.37571,23.62,43.024,-57.68,337.379,-2.348,4.932,5.0,63.4834,23.000332,120.219536,45.617,NaN,4.228,8.0,256.247,0 / 0,40809,2021-03-23 20:04:09:691
-0.46944,0.55769,9.98796,-0.85231,0.43244,9.75997,-0.00633,0.017,0.37865,23.665,41.171,-57.014,336.487,-2.527,4.991,5.0,63.4834,23.000332,120.219536,45.617,NaN,4.228,8.0,256.247,0 / 0,40909,2021-03-23 20:04:09:791
-0.23951,0.69661,9.85862,-0.77123,0.49066,9.76396,8.7E-4,0.0212,0.36449,25.683,41.983,-58.503,334.694,-2.868,4.516,5.0,63.5576,23.000332,120.219536,45.617,NaN,4.228,8.0,256.247,0 / 0,41010,2021-03-23 20:04:09:892
-0.31376,0.79002,9.54008,-0.72088,0.52691,9.76591,0.00129,0.02514,0.35489,25.175,39.044,-57.001,333.776,-3.08,4.222,5.0,63.5576,23.000332,120.219536,45.617,NaN,4.228,8.0,256.247,0 / 0,41110,2021-03-23 20:04:09:992
0.01677,0.85708,9.77001,-0.63034,0.60317,9.76777,-0.00508,0.03092,0.32894,26.714,37.104,-55.177,329.926,-3.526,3.692,5.0,63.5576,23.000332,120.219536,45.617,NaN,4.228,8.0,256.247,0 / 0,41209,2021-03-23 20:04:10:091
-0.09101,1.02713,9.66941,-0.52927,0.66223,9.76994,-0.00145,0.03286,0.31565,26.479,36.692,-59.271,330.947,-3.872,3.101,5.0,63.5576,23.000332,120.219536,45.617,NaN,4.228,8.0,256.247,0 / 0,41309,2021-03-23 20:04:10:191
-0.3904,0.92414,9.75324,-0.48793,0.70268,9.76927,-0.00966,0.04177,0.28572,30.089,35.913,-58.981,326.118,-4.109,2.859,5.0,63.0647,23.000332,120.219536,45.617,NaN,4.228,8.0,256.247,0 / 0,41409,2021-03-23 20:04:10:291
-0.22514,0.82115,9.69576,-0.4566,0.75049,9.76722,-0.01496,0.0299,0.269,30.81,34.731,-57.237,324.283,-4.389,2.677,5.0,63.0647,23.000332,120.219536,45.617,NaN,4.228,8.0,256.247,0 / 0,41512,2021-03-23 20:04:10:394
-0.22274,0.85229,9.63349,-0.43981,0.77125,9.76638,-0.01858,0.0122,0.24178,30.544,31.92,-56.733,322.101,-4.511,2.578,5.0,63.0647,23.000332,120.219536,45.617,NaN,4.228,8.0,256.247,0 / 0,41609,2021-03-23 20:04:10:491
-0.30897,1.04869,9.78438,-0.41646,0.78723,9.76613,-0.01658,0.0109,0.23734,32.128,30.617,-55.965,320.193,-4.604,2.442,5.0,62.9249,23.000332,120.219536,45.617,NaN,4.228,8.0,256.247,0 / 0,41711,2021-03-23 20:04:10:593
-0.43111,1.2379,9.89216,-0.38102,0.83592,9.76353,-0.00157,0.02346,0.22533,32.799,30.519,-55.439,319.172,-4.89,2.235,5.0,62.9249,23.000332,120.219536,45.617,NaN,4.228,8.0,256.247,0 / 0,41808,2021-03-23 20:04:10:690
-0.51494,1.20676,9.55924,-0.37877,0.92687,9.7554,0.00265,0.02136,0.21507,33.354,28.702,-53.676,317.829,-5.423,2.224,5.0,62.9249,23.000332,120.219536,45.617,NaN,4.228,8.0,256.247,0 / 0,41909,2021-03-23 20:04:10:791
-0.56045,1.21155,9.76282,-0.38235,0.97423,9.75065,-7.4E-4,0.0074,0.19765,32.784,27.143,-53.031,316.232,-5.701,2.246,5.0,60.8206,23.000332,120.219536,45.617,NaN,4.228,8.0,256.247,0 / 0,42008,2021-03-23 20:04:10:890
-0.22274,1.18281,9.79875,-0.39165,1.04484,9.74296,-0.00635,-0.00172,0.19777,33.085,26.573,-51.9,316.48,-6.116,2.302,5.0,60.8206,23.000332,120.219536,45.617,NaN,4.228,8.0,256.247,0 / 0,42109,2021-03-23 20:04:10:991
-0.18682,1.20197,9.93527,-0.32795,1.09324,9.74,-0.00829,-1.4E-4,0.17632,34.856,23.873,-48.407,311.317,-6.401,1.928,5.0,60.8206,23.000332,120.219536,45.617,NaN,4.228,8.0,256.247,0 / 0,42209,2021-03-23 20:04:11:091
0.26346,1.30735,9.69815,-0.2865,1.10481,9.74,-0.0068,0.00126,0.16255,34.429,24.802,-48.462,312.984,-6.469,1.685,5.0,59.3006,23.000332,120.219536,45.617,NaN,4.228,8.0,256.247,0 / 0,42309,2021-03-23 20:04:11:191
0.01677,1.42711,9.32213,-0.20571,1.13709,9.73833,-0.01276,0.00586,0.13771,34.035,21.992,-45.669,309.549,-6.658,1.21,5.0,59.3006,23.000332,120.219536,45.617,NaN,4.228,8.0,256.247,0 / 0,42409,2021-03-23 20:04:11:291
-0.04311,1.39837,9.65025,-0.15786,1.17467,9.73476,-0.01527,-3.7E-4,0.12156,34.097,23.193,-43.951,310.245,-6.88,0.929,5.0,59.3006,23.000332,120.219536,45.617,NaN,4.228,8.0,256.247,0 / 0,42508,2021-03-23 20:04:11:390
0.19161,1.21395,9.94006,-0.128,1.19182,9.73312,-0.01815,-0.00178,0.09886,34.151,22.432,-41.874,308.909,-6.981,0.753,5.0,59.3006,23.000332,120.219536,45.617,NaN,4.228,8.0,256.247,0 / 0,42609,2021-03-23 20:04:11:491
0.05988,1.52052,9.9688,-0.03912,1.19576,9.7334,-0.00905,0.01288,0.08312,33.424,20.777,-40.67,308.222,-7.004,0.23,5.0,58.5343,23.000332,120.219536,45.617,NaN,4.228,8.0,256.247,0 / 0,42708,2021-03-23 20:04:11:590
-0.03593,1.54207,9.59277,-0.03079,1.22877,9.72932,0.00554,0.01237,0.06522,34.579,20.735,-39.034,306.423,-7.198,0.181,5.0,58.5343,23.000332,120.219536,45.617,NaN,4.228,8.0,256.247,0 / 0,42809,2021-03-23 20:04:11:691
-0.35687,1.59955,9.81791,-0.03728,1.26332,9.72487,0.00261,0.01925,0.06048,34.515,20.947,-36.688,306.303,-7.402,0.22,5.0,58.5343,23.000332,120.219536,45.617,NaN,4.228,8.0,256.247,0 / 0,42909,2021-03-23 20:04:11:791
-0.42153,1.43429,9.81312,-0.06928,1.32537,9.71643,0.00309,0.00426,0.04345,34.687,18.887,-35.692,304.328,-7.767,0.409,5.0,58.9983,23.000332,120.219536,45.617,NaN,4.228,8.0,256.247,0 / 0,43008,2021-03-23 20:04:11:890
-0.43351,1.50375,9.77959,-0.10766,1.34632,9.7132,0.01224,0.006,0.04039,34.18,17.889,-34.724,304.019,-7.891,0.635,5.0,58.9983,23.000332,120.219536,45.617,NaN,4.228,8.0,256.247,0 / 0,43108,2021-03-23 20:04:11:990
-0.51255,1.69057,9.36284,-0.15004,1.37092,9.70919,0.01727,0.01498,0.05513,34.216,17.755,-32.869,303.909,-8.036,0.885,5.0,58.9983,23.000332,120.219536,45.617,NaN,4.228,8.0,256.247,0 / 0,43209,2021-03-23 20:04:12:091
-0.25148,1.43908,9.68618,-0.19663,1.44272,9.69795,0.00144,0.00832,0.05798,34.659,18.257,-33.266,303.551,-8.46,1.162,5.0,60.1957,23.000332,120.219536,45.617,NaN,4.228,8.0,256.247,0 / 0,43309,2021-03-23 20:04:12:191
-0.57721,1.19479,9.69097,-0.22484,1.46007,9.69474,-0.00635,0.00416,0.05007,34.878,17.96,-31.956,303.517,-8.562,1.329,5.0,60.1957,23.000332,120.219536,45.617,NaN,4.228,8.0,256.247,0 / 0,43409,2021-03-23 20:04:12:291
-0.67541,1.34807,9.88736,-0.2515,1.45295,9.69516,0.0044,-0.01345,0.05328,35.559,17.773,-30.342,302.444,-8.52,1.486,5.0,60.1957,23.000332,120.219536,45.617,NaN,4.228,8.0,256.247,0 / 0,43508,2021-03-23 20:04:12:390
-0.32334,1.63069,9.576,-0.29965,1.43314,9.69674,0.02356,-0.02216,0.06202,36.394,17.207,-29.632,301.357,-8.403,1.77,5.0,58.3469,23.000332,120.219536,45.617,NaN,4.228,8.0,256.247,0 / 0,43609,2021-03-23 20:04:12:491
0.24669,1.71691,9.4802,-0.2558,1.48413,9.69032,0.01132,-0.01789,0.0638,36.171,18.209,-29.807,302.561,-8.705,1.512,5.0,58.3469,23.000332,120.219536,45.617,NaN,4.228,8.0,256.247,0 / 0,43709,2021-03-23 20:04:12:591
0.09341,1.55405,9.83946,-0.19872,1.50259,9.68881,-0.00348,0.01359,0.04595,34.611,18.344,-30.449,303.197,-8.814,1.175,5.0,58.3469,23.000332,120.219536,45.617,NaN,4.228,8.0,256.247,0 / 0,43808,2021-03-23 20:04:12:690
-0.45267,1.51573,9.79875,-0.14771,1.50697,9.68905,-0.00623,0.02699,0.04665,35.393,17.466,-29.073,301.694,-8.84,0.873,5.0,58.3469,23.000332,120.219536,45.617,NaN,4.228,8.0,256.247,0 / 0,43909,2021-03-23 20:04:12:791
-0.22035,1.35286,9.7245,-0.21823,1.48625,9.69092,-0.01887,0.02073,0.04989,36.405,19.37,-29.141,303.396,-8.717,1.29,5.0,60.3001,23.000332,120.219536,45.617,NaN,4.228,8.0,256.247,0 / 0,44009,2021-03-23 20:04:12:891
-0.68978,1.15407,9.54726,-0.23789,1.45287,9.69551,-0.01407,0.01133,0.04762,36.577,18.164,-29.546,301.687,-8.52,1.406,5.0,60.3001,23.000332,120.219536,45.617,NaN,4.228,8.0,256.247,0 / 0,44109,2021-03-23 20:04:12:991
-0.46944,1.24269,9.61432,-0.31464,1.42594,9.69732,0.00143,-0.01587,0.05104,38.131,21.198,-32.483,304.728,-8.361,1.858,5.0,60.3001,23.000332,120.219536,45.617,NaN,4.228,8.0,256.247,0 / 0,44208,2021-03-23 20:04:13:090
-0.04551,1.49896,10.06939,-0.31941,1.41893,9.6982,0.00302,-0.03283,0.05252,37.261,20.961,-32.813,305.632,-8.319,1.886,5.0,62.5921,23.000332,120.219536,45.617,NaN,4.228,8.0,256.247,0 / 0,44309,2021-03-23 20:04:13:191
0.00958,1.384,9.55205,-0.26401,1.42314,9.69925,0.00407,-0.00196,0.03442,36.516,20.605,-34.408,305.641,-8.344,1.559,5.0,62.5921,23.000332,120.219536,45.617,NaN,4.228,8.0,256.247,0 / 0,44409,2021-03-23 20:04:13:291
0.04551,1.45345,9.54008,-0.16044,1.42569,9.70114,0.00372,0.00142,0.03631,38.298,22.118,-34.185,305.601,-8.359,0.947,5.0,62.5921,23.000332,120.219536,45.617,NaN,4.228,8.0,256.247,0 / 0,44509,2021-03-23 20:04:13:391
-0.22514,1.48459,9.65025,-0.13446,1.42452,9.7017,-0.00597,0.03804,0.03828,37.802,23.731,-33.59,307.468,-8.352,0.794,5.0,62.701,23.000332,120.219536,45.617,NaN,4.228,8.0,256.247,0 / 0,44609,2021-03-23 20:04:13:491
-0.49099,1.52052,9.99275,-0.15053,1.42596,9.70126,-0.00996,0.06213,0.03454,39.439,22.201,-33.312,304.705,-8.361,0.889,5.0,62.701,23.000332,120.219536,45.617,NaN,4.228,8.0,256.247,0 / 0,44708,2021-03-23 20:04:13:590
-0.87899,1.21874,9.99035,-0.2105,1.39484,9.70466,-0.00131,0.04029,0.0303,39.535,23.161,-31.11,304.771,-8.177,1.243,5.0,62.701,23.000332,120.219536,45.617,NaN,4.228,8.0,256.247,0 / 0,44808,2021-03-23 20:04:13:690
-0.85025,1.15167,9.60714,-0.29073,1.37047,9.70606,0.00707,-0.00888,0.03105,39.699,24.003,-29.827,305.737,-8.033,1.716,5.0,62.6293,23.000332,120.219536,45.617,NaN,4.228,8.0,256.247,0 / 0,44910,2021-03-23 20:04:13:792
0.36405,1.25945,9.63109,-0.27428,1.37611,9.70575,0.00702,-0.06276,0.02779,40.61,24.78,-28.333,305.664,-8.067,1.619,5.0,62.6293,23.000332,120.219536,45.617,NaN,4.228,8.0,256.247,0 / 0,45008,2021-03-23 20:04:13:890
0.73768,1.26185,9.79635,-0.18876,1.38441,9.7066,-0.00657,-0.03986,0.02565,39.394,24.482,-29.233,306.039,-8.116,1.114,5.0,62.6293,23.000332,120.219536,45.617,NaN,4.228,8.0,256.247,0 / 0,45109,2021-03-23 20:04:13:991
0.11496,1.29538,9.82509,-0.1443,1.36673,9.70987,-0.00876,0.02451,0.00682,40.304,27.366,-28.37,307.818,-8.011,0.851,5.0,62.6293,23.000332,120.219536,45.617,NaN,4.228,8.0,256.247,0 / 0,45209,2021-03-23 20:04:14:091
-0.05509,0.84271,9.61432,-0.155,1.35712,9.71106,-0.00928,0.02109,-0.00152,40.409,27.359,-28.049,307.824,-7.955,0.914,5.0,62.0041,23.000332,120.219536,45.617,NaN,4.228,8.0,256.247,0 / 0,45308,2021-03-23 20:04:14:190
-0.15329,0.85708,9.77001,-0.1748,1.33791,9.71338,-0.00328,0.003,0.01144,40.404,29.443,-28.989,309.711,-7.841,1.031,5.0,62.0041,23.000332,120.219536,45.617,NaN,4.228,8.0,256.247,0 / 0,45409,2021-03-23 20:04:14:291
-0.18442,0.93851,9.16645,-0.17454,1.31937,9.71592,-0.00817,0.00164,0.0085,38.462,30.266,-30.273,312.11,-7.732,1.029,5.0,62.0041,23.000332,120.219536,45.617,NaN,4.228,8.0,256.247,0 / 0,45509,2021-03-23 20:04:14:391
-0.03114,0.91217,10.05023,-0.17533,1.30677,9.71761,-0.01705,-0.00806,-0.01287,38.011,31.581,-32.127,313.95,-7.658,1.034,5.0,62.3117,23.000332,120.219536,45.617,NaN,4.228,8.0,256.247,0 / 0,45609,2021-03-23 20:04:14:491
0.62512,0.91696,9.20716,-0.14743,1.18394,9.73381,-0.0121,-0.00594,-0.00852,37.784,32.016,-33.601,313.798,-6.934,0.868,5.0,62.3117,23.000332,120.219536,45.617,NaN,4.228,8.0,256.247,0 / 0,45708,2021-03-23 20:04:14:590
-0.01437,0.64392,9.71013,-0.07234,1.11035,9.74332,-0.03349,0.02317,0.00216,37.199,35.131,-36.8,316.718,-6.501,0.425,5.0,62.3117,23.000332,120.219536,45.617,NaN,4.228,8.0,256.247,0 / 0,45809,2021-03-23 20:04:14:691
-0.28981,0.49542,10.53164,-0.0764,1.06233,9.74864,-0.03023,0.02457,-0.00971,36.057,34.343,-37.595,316.747,-6.219,0.449,5.0,63.1227,23.000332,120.219536,45.617,NaN,4.228,8.0,256.247,0 / 0,45909,2021-03-23 20:04:14:791
-0.72092,0.71817,9.76522,-0.12961,0.9337,9.76124,-0.00147,-0.002,-0.01231,36.408,36.392,-40.3,318.217,-5.463,0.761,5.0,63.1227,23.000332,120.219536,45.617,NaN,4.228,8.0,256.247,0 / 0,46009,2021-03-23 20:04:14:891
0.57242,0.57207,9.88257,-0.2004,0.8758,9.76541,-0.00267,-0.02799,-0.0058,35.347,35.298,-42.496,318.571,-5.124,1.176,5.0,63.1227,23.000332,120.219536,45.617,NaN,4.228,8.0,256.247,0 / 0,46110,2021-03-23 20:04:14:992
0.06227,0.46429,9.74126,-0.14075,0.84307,9.76933,0.00454,-0.0031,-0.00516,34.871,34.965,-43.517,318.395,-4.932,0.825,5.0,61.3095,23.000332,120.219536,45.617,NaN,4.228,8.0,256.247,0 / 0,46209,2021-03-23 20:04:15:091
0.27783,0.71338,9.93527,-0.0956,0.7954,9.77387,0.00796,-8.2E-4,-0.0032,34.903,33.244,-44.212,316.548,-4.652,0.56,5.0,61.3095,23.000332,120.219536,45.617,NaN,4.228,8.0,256.247,0 / 0,46308,2021-03-23 20:04:15:190
-0.06227,0.76846,9.98077,-0.11192,0.75084,9.77722,0.02839,0.01288,-5.1E-4,36.4,33.846,-47.838,316.692,-4.391,0.656,5.0,61.3095,23.000332,120.219536,45.617,NaN,4.228,8.0,256.247,0 / 0,46409,2021-03-23 20:04:15:291
-0.18682,0.74451,9.59995,-0.12688,0.74382,9.77758,0.03903,0.00459,-0.00163,33.889,32.607,-46.727,317.553,-4.35,0.743,5.0,61.3095,23.000332,120.219536,45.617,NaN,4.228,8.0,256.247,0 / 0,46509,2021-03-23 20:04:15:391
0.30657,0.66547,9.6742,-0.17111,0.76428,9.77533,0.02653,-0.01783,-5.8E-4,33.365,31.373,-47.098,317.093,-4.47,1.003,5.0,62.4011,23.000332,120.219536,45.617,NaN,4.228,8.0,256.247,0 / 0,46609,2021-03-23 20:04:15:491
0.01677,0.88582,9.72929,-0.15213,0.78452,9.77404,0.0206,-0.00948,-4.3E-4,32.495,31.761,-48.576,318.942,-4.589,0.892,5.0,62.4011,23.000332,120.219536,45.617,NaN,4.228,8.0,256.247,0 / 0,46708,2021-03-23 20:04:15:590
0.21077,1.20676,9.32452,-0.13535,0.78441,9.77429,0.00758,0.00635,6.2E-4,33.75,31.343,-49.341,316.293,-4.588,0.793,5.0,62.4011,23.000332,120.219536,45.617,NaN,4.228,8.0,256.247,0 / 0,46809,2021-03-23 20:04:15:691
-0.34729,0.74212,9.29099,-0.10212,0.80282,9.7732,-0.0074,0.00167,0.0021,35.115,31.127,-47.868,315.296,-4.696,0.599,5.0,63.0123,23.000332,120.219536,45.617,NaN,4.228,8.0,256.247,0 / 0,46909,2021-03-23 20:04:15:791
-0.2419,0.54332,9.58558,-0.15317,0.79669,9.77303,-0.0306,-0.01327,-0.00242,34.698,31.613,-49.999,316.459,-4.66,0.898,5.0,63.0123,23.000332,120.219536,45.617,NaN,4.228,8.0,256.247,0 / 0,47009,2021-03-23 20:04:15:891
-0.21316,0.75888,10.17957,-0.16247,0.7894,9.77348,-0.0393,-0.03598,2.4E-4,35.867,31.175,-48.683,314.764,-4.617,0.952,5.0,63.0123,23.000332,120.219536,45.617,NaN,4.228,8.0,256.247,0 / 0,47109,2021-03-23 20:04:15:991
0.11975,0.67505,9.7724,-0.13683,0.7183,9.77935,-0.02472,-0.0388,3.5E-4,35.979,32.433,-49.6,315.255,-4.2,0.802,5.0,63.2336,23.000332,120.219536,45.617,NaN,4.228,8.0,256.247,0 / 0,47208,2021-03-23 20:04:16:090
0.21795,0.37567,9.76522,-0.03319,0.68754,9.78246,-0.02901,-0.0154,-0.00239,38.841,31.031,-51.368,311.63,-4.02,0.194,5.0,63.2336,23.000332,120.219536,45.617,NaN,4.228,8.0,256.247,0 / 0,47308,2021-03-23 20:04:16:190
0.20598,0.22957,10.36159,0.0023,0.65346,9.78486,-0.02151,0.01497,-0.00438,40.177,31.124,-50.747,310.628,-3.821,-0.013,5.0,63.2336,23.000332,120.219536,45.617,NaN,4.228,8.0,256.247,0 / 0,47408,2021-03-23 20:04:16:290
-0.3425,0.8475,9.15687,0.00557,0.57939,9.78952,-7.1E-4,0.01166,-0.00563,41.145,28.911,-48.634,307.816,-3.387,-0.033,5.0,63.939,23.000332,120.219536,45.617,NaN,4.228,8.0,256.247,0 / 0,47509,2021-03-23 20:04:16:391
-0.35687,0.61278,9.40595,-0.04434,0.58267,9.78922,0.00483,-0.01557,-0.00592,41.953,27.296,-44.266,305.283,-3.406,0.26,5.0,63.939,23.000332,120.219536,45.617,NaN,4.228,8.0,256.247,0 / 0,47609,2021-03-23 20:04:16:491
-0.10538,0.1673,9.99514,-0.04063,0.58472,9.78912,0.00563,-0.02296,-0.00441,40.88,24.93,-44.414,304.056,-3.418,0.238,5.0,63.939,23.000332,120.219536,45.617,NaN,4.228,8.0,256.247,0 / 0,47709,2021-03-23 20:04:16:591
0.20837,0.71338,10.07179,-0.01071,0.59601,9.78852,0.02434,-0.00906,-0.00443,39.497,23.458,-40.9,303.159,-3.484,0.063,5.0,63.939,23.000332,120.219536,45.617,NaN,4.228,8.0,256.247,0 / 0,47809,2021-03-23 20:04:16:691
0.3425,0.89061,9.49936,0.00283,0.62464,9.78674,0.02004,0.01672,-0.00778,40.94,24.05,-38.69,302.805,-3.652,-0.017,5.0,62.061,23.000332,120.219536,45.617,NaN,4.228,8.0,256.247,0 / 0,47908,2021-03-23 20:04:16:790
-0.27064,0.7972,10.0143,-0.00696,0.63872,9.78583,0.01667,0.02223,-0.00743,39.001,23.984,-36.216,304.007,-3.734,0.041,5.0,62.061,23.000332,120.219536,45.617,NaN,4.228,8.0,256.247,0 / 0,48009,2021-03-23 20:04:16:891
-0.30897,0.8451,9.52092,-0.04255,0.65042,9.78496,0.01826,0.02167,-0.00778,38.251,24.137,-35.157,304.774,-3.803,0.249,5.0,62.061,23.000332,120.219536,45.617,NaN,4.228,8.0,256.247,0 / 0,48109,2021-03-23 20:04:16:991
-0.11017,0.58883,9.0419,-0.12175,0.69309,9.78137,-0.00703,-0.00505,-0.0091,36.149,24.663,-34.591,307.657,-4.053,0.713,5.0,62.2692,23.000332,120.219536,45.617,NaN,4.228,8.0,256.247,0 / 0,48208,2021-03-23 20:04:17:090
-0.33531,0.8978,9.58319,-0.1258,0.68214,9.78209,0.00506,-0.00138,-0.01163,35.561,25.957,-35.314,308.626,-3.989,0.737,5.0,62.2692,23.000332,120.219536,45.617,NaN,4.228,8.0,256.247,0 / 0,48309,2021-03-23 20:04:17:191
-0.11017,0.87145,10.34003,-0.12243,0.69909,9.78093,-0.00367,-0.00619,0.00177,36.656,26.087,-35.434,307.901,-4.088,0.717,5.0,62.2692,23.000332,120.219536,45.617,NaN,4.228,8.0,256.247,0 / 0,48409,2021-03-23 20:04:17:291
-0.20358,0.47626,9.90892,-0.11872,0.6819,9.78219,-0.0063,4.9E-4,0.00425,36.125,25.112,-33.085,307.449,-3.987,0.695,5.0,61.0957,23.000332,120.219536,45.617,NaN,4.228,8.0,256.247,0 / 0,48509,2021-03-23 20:04:17:391
-0.03593,0.42597,9.87299,-0.13351,0.68454,9.78182,-0.00304,-0.00962,0.00746,37.557,26.52,-30.777,307.79,-4.003,0.782,5.0,61.0957,23.000332,120.219536,45.617,NaN,4.228,8.0,256.247,0 / 0,48608,2021-03-23 20:04:17:490
0.10299,0.77086,9.59756,-0.16219,0.64743,9.78391,0.01335,-0.0424,0.01068,35.65,26.746,-31.309,309.286,-3.785,0.95,5.0,61.0957,23.000332,120.219536,45.617,NaN,4.228,8.0,256.247,0 / 0,48709,2021-03-23 20:04:17:591
0.42872,0.66787,9.59037,-0.10823,0.6734,9.7829,-0.01268,-0.01113,0.00585,36.874,27.75,-30.518,309.383,-3.937,0.634,5.0,62.6961,23.000332,120.219536,45.617,NaN,4.228,8.0,256.247,0 / 0,48809,2021-03-23 20:04:17:691
0.55326,0.51219,9.84425,-0.03698,0.65944,9.78438,-0.00523,0.00814,0.00312,35.665,28.342,-30.742,309.926,-3.856,0.217,5.0,62.6961,23.000332,120.219536,45.617,NaN,4.228,8.0,256.247,0 / 0,48909,2021-03-23 20:04:17:791
0.05988,0.69661,9.34847,-0.04413,0.65936,9.78436,0.01229,0.06981,-5.1E-4,38.725,29.911,-29.306,309.371,-3.855,0.258,5.0,62.6961,23.000332,120.219536,45.617,NaN,4.228,8.0,256.247,0 / 0,49008,2021-03-23 20:04:17:890
-0.74966,0.57925,9.86102,-0.12202,0.67656,9.78252,0.00763,0.05237,-0.00667,40.665,30.13,-28.808,308.189,-3.956,0.715,5.0,62.6961,23.000332,120.219536,45.617,NaN,4.228,8.0,256.247,0 / 0,49109,2021-03-23 20:04:17:991
-0.84307,0.76367,10.02867,-0.14992,0.67827,9.78202,3.6E-4,-0.01588,-0.00882,41.257,30.238,-27.37,308.117,-3.966,0.878,5.0,61.1492,23.000332,120.219536,45.617,NaN,4.228,8.0,256.247,0 / 0,49209,2021-03-23 20:04:18:091
-0.49339,0.62476,9.98077,-0.15439,0.67645,9.78207,0.00131,-0.03652,-0.00201,41.481,30.515,-28.396,309.054,-3.955,0.904,5.0,61.1492,23.000332,120.219536,45.617,NaN,4.228,8.0,256.247,0 / 0,49310,2021-03-23 20:04:18:192
0.10059,0.58644,9.25746,-0.11375,0.67409,9.78279,-0.00366,-0.0703,-0.00691,42.047,31.1,-29.369,308.344,-3.942,0.666,5.0,61.1492,23.000332,120.219536,45.617,NaN,4.228,8.0,256.247,0 / 0,49409,2021-03-23 20:04:18:291
0.78798,0.57686,9.73887,-0.05668,0.66826,9.78369,-0.00137,-0.04331,-0.00776,43.665,32.212,-29.377,307.735,-3.907,0.332,5.0,62.4491,23.000332,120.219536,45.617,NaN,4.228,8.0,256.247,0 / 0,49508,2021-03-23 20:04:18:390
0.64667,0.75409,9.71492,0.02545,0.65917,9.78444,-0.00792,0.03123,0.00805,45.71,30.973,-31.036,305.612,-3.854,-0.149,5.0,62.4491,23.000332,120.219536,45.617,NaN,4.228,8.0,256.247,0 / 0,49608,2021-03-23 20:04:18:490
-0.25867,0.74451,9.89934,0.00275,0.6469,9.78529,-0.0189,0.0544,-0.00444,45.886,29.703,-28.113,304.636,-3.782,-0.016,5.0,62.4491,23.000332,120.219536,45.617,NaN,4.228,8.0,256.247,0 / 0,49709,2021-03-23 20:04:18:591
-0.65386,0.44273,9.58798,-0.03272,0.63753,9.78585,-0.00296,0.01823,-0.00907,45.935,27.881,-27.497,302.905,-3.727,0.192,5.0,61.1143,23.000332,120.219536,45.617,NaN,4.228,8.0,256.247,0 / 0,49809,2021-03-23 20:04:18:691
-0.30897,0.09065,9.89216,-0.07877,0.6295,9.78611,-0.00728,-0.01157,-0.00353,46.951,28.245,-27.609,302.47,-3.68,0.461,5.0,61.1143,23.000332,120.219536,45.617,NaN,4.228,8.0,256.247,0 / 0,49908,2021-03-23 20:04:18:790
0.40477,0.19604,9.52092,-0.06313,0.6079,9.78759,-0.00414,-0.01037,-0.0032,43.476,27.474,-25.641,303.711,-3.554,0.37,5.0,61.1143,23.000332,120.219536,45.617,NaN,4.228,8.0,256.247,0 / 0,50009,2021-03-23 20:04:18:891
0.1437,-0.17759,9.82509,-0.05034,0.5986,9.78823,-0.00707,-6.9E-4,-0.00406,43.487,27.936,-27.934,304.696,-3.5,0.295,5.0,63.0293,23.000332,120.219536,45.617,NaN,4.228,8.0,256.247,0 / 0,50109,2021-03-23 20:04:18:991
-0.2946,0.23196,10.31608,-0.04899,0.57742,9.78951,0.00939,0.02989,-0.00851,42.911,29.302,-27.891,305.535,-3.376,0.287,5.0,63.0293,23.000332,120.219536,45.617,NaN,4.228,8.0,256.247,0 / 0,50208,2021-03-23 20:04:19:090
-0.68739,0.25352,9.59517,-0.0883,0.57308,9.78949,0.0097,0.02835,7.1E-4,41.285,28.644,-26.872,306.855,-3.35,0.517,5.0,63.0293,23.000332,120.219536,45.617,NaN,4.228,8.0,256.247,0 / 0,50308,2021-03-23 20:04:19:190
-0.81672,0.28945,9.37482,-0.14928,0.54401,9.79041,0.00233,-0.02452,0.01638,38.661,28.948,-30.775,308.559,-3.18,0.874,5.0,63.0293,23.000332,120.219536,45.617,NaN,4.228,8.0,256.247,0 / 0,50409,2021-03-23 20:04:19:291
-0.04311,-0.06024,10.05981,-0.14435,0.54135,9.79063,-0.00962,-0.03608,0.01686,36.59,31.998,-32.12,312.737,-3.164,0.845,5.0,63.7456,23.000332,120.219536,45.617,NaN,4.228,8.0,256.247,0 / 0,50509,2021-03-23 20:04:19:391
0.39758,0.67984,9.52571,-0.09628,0.52316,9.79221,0.02335,-0.04277,0.01198,35.457,31.154,-34.111,313.407,-3.058,0.563,5.0,63.7456,23.000332,120.219536,45.617,NaN,4.228,8.0,256.247,0 / 0,50608,2021-03-23 20:04:19:490
0.28741,0.59362,9.20956,-0.06551,0.53279,9.79195,0.0244,-0.00639,0.00885,34.686,33.774,-38.413,316.038,-3.114,0.383,5.0,63.7456,23.000332,120.219536,45.617,NaN,4.228,8.0,256.247,0 / 0,50709,2021-03-23 20:04:19:591
-0.01677,0.47626,9.80114,-0.05921,0.55414,9.7908,-0.01435,0.03532,0.01945,34.637,35.599,-41.575,317.807,-3.239,0.347,5.0,63.4637,23.000332,120.219536,45.617,NaN,4.228,8.0,256.247,0 / 0,50809,2021-03-23 20:04:19:691
-0.57961,0.40201,10.1125,-0.0966,0.53699,9.79146,-0.01116,0.04349,0.01489,33.527,33.154,-39.472,316.243,-3.139,0.565,5.0,63.4637,23.000332,120.219536,45.617,NaN,4.228,8.0,256.247,0 / 0,50910,2021-03-23 20:04:19:792
-0.67062,0.47866,10.02388,-0.14711,0.53342,9.79103,0.00324,0.00158,0.01481,33.199,32.35,-42.587,316.608,-3.116,0.744,5.0,63.4637,23.000332,120.219536,45.617,NaN,4.228,8.0,256.247,0 / 0,51008,2021-03-23 20:04:19:890
-0.25627,0.68463,9.55924,-0.15024,0.53456,9.79092,0.0019,-0.01971,0.02154,33.716,34.044,-42.932,317.454,-3.125,0.879,5.0,62.3882,23.000332,120.219536,45.617,NaN,4.228,8.0,256.247,0 / 0,51109,2021-03-23 20:04:19:991
-0.17245,0.34693,9.71971,-0.12557,0.53809,9.79107,0.00138,-0.03461,0.01669,32.22,31.402,-41.925,316.612,-3.145,0.735,5.0,62.3882,23.000332,120.219536,45.617,NaN,4.228,8.0,256.247,0 / 0,51210,2021-03-23 20:04:20:092
0.01916,0.56488,9.71731,-0.11552,0.53508,9.79136,0.01448,-0.04145,0.00885,31.046,32.23,-43.925,318.436,-3.128,0.676,5.0,62.3882,23.000332,120.219536,45.617,NaN,4.228,8.0,256.247,0 / 0,51309,2021-03-23 20:04:20:191
0.68978,0.67266,9.76043,-0.05474,0.56428,9.79025,0.00117,-0.02129,0.01636,30.62,33.909,-44.343,319.873,-3.299,0.32,5.0,62.3232,23.000332,120.219536,45.617,NaN,4.228,8.0,256.247,0 / 0,51409,2021-03-23 20:04:20:291
0.21316,0.37088,9.5784,0.0737,0.59277,9.78844,-0.01499,0.00718,0.00841,31.784,34.191,-45.636,318.612,-3.465,-0.431,5.0,62.3232,23.000332,120.219536,45.617,NaN,4.228,8.0,256.247,0 / 0,51509,2021-03-23 20:04:20:391
-0.05988,0.68463,9.83228,0.0871,0.56501,9.78997,0.00778,0.02813,9.0E-5,31.854,34.729,-46.99,319.291,-3.405,-0.547,5.0,62.3232,23.000332,120.219536,45.617,NaN,4.228,8.0,256.247,0 / 0,51612,2021-03-23 20:04:20:494
-0.43111,0.48824,10.10053,0.05656,0.56031,9.79047,0.00777,0.03034,-0.00181,33.007,33.765,-44.818,317.663,-3.275,-0.331,5.0,62.3232,23.000332,120.219536,45.617,NaN,4.228,8.0,256.247,0 / 0,51709,2021-03-23 20:04:20:591
-0.26106,0.66787,9.53529,-0.06102,0.55319,9.79085,0.00379,-0.00632,0.002,32.549,35.378,-46.174,318.939,-3.234,0.357,5.0,62.4549,23.000332,120.219536,45.617,NaN,4.228,8.0,256.247,0 / 0,51809,2021-03-23 20:04:20:691
-0.01916,0.44752,9.51134,-0.10554,0.56336,9.78989,-0.00616,-0.01666,0.00245,33.603,35.076,-47.436,318.277,-3.281,0.519,5.0,62.4549,23.000332,120.219536,45.617,NaN,4.228,8.0,256.247,0 / 0,51909,2021-03-23 20:04:20:791
0.1437,0.34693,9.85623,-0.08196,0.55367,9.79067,-0.01275,-0.02614,0.00289,34.181,36.36,-48.379,319.15,-3.293,0.618,5.0,62.4549,23.000332,120.219536,45.617,NaN,4.228,8.0,256.247,0 / 0,52009,2021-03-23 20:04:20:891
0.0479,0.60799,9.98556,-0.0252,0.52891,9.79234,0.00564,-0.01067,0.00585,34.006,34.846,-47.653,318.271,-3.237,0.48,5.0,62.6551,23.000332,120.219536,45.617,NaN,4.228,8.0,256.247,0 / 0,52109,2021-03-23 20:04:20:991
-0.26346,0.48824,9.88976,-0.01153,0.52927,9.79235,0.00614,-0.00709,0.00299,36.26,35.054,-51.16,316.372,-3.094,0.067,5.0,62.6551,23.000332,120.219536,45.617,NaN,4.228,8.0,256.247,0 / 0,52209,2021-03-23 20:04:21:091
0.03593,0.311,9.66702,-0.03197,0.52343,9.79262,0.00636,-0.02086,0.00109,37.628,33.921,-49.979,314.069,-3.06,0.187,5.0,62.6551,23.000332,120.219536,45.617,NaN,4.228,8.0,256.247,0 / 0,52309,2021-03-23 20:04:21:191
0.32813,0.32058,9.72689,-0.01021,0.5255,9.79256,-0.00294,-0.01225,0.01119,37.038,29.857,-49.932,311.456,-3.072,0.06,5.0,62.9563,23.000332,120.219536,45.617,NaN,4.228,8.0,256.247,0 / 0,52409,2021-03-23 20:04:21:291
0.09341,0.67505,9.71013,0.05313,0.5136,9.79305,-0.0016,0.00804,0.00105,38.666,30.483,-51.285,309.82,-3.006,-0.15,5.0,62.9563,23.000332,120.219536,45.617,NaN,4.228,8.0,256.247,0 / 0,52509,2021-03-23 20:04:21:391
-0.0479,0.42836,10.17717,0.05288,0.5207,9.79267,-0.01203,0.01747,0.00329,37.194,26.327,-47.365,307.367,-3.044,-0.309,5.0,62.9563,23.000332,120.219536,45.617,NaN,4.228,8.0,256.247,0 / 0,52611,2021-03-23 20:04:21:493
-0.05748,0.29663,10.04783,0.01566,0.47395,9.79518,-0.0148,0.01641,4.9E-4,35.234,26.709,-49.695,309.949,-2.77,-0.092,5.0,62.9563,23.000332,120.219536,45.617,NaN,4.228,8.0,256.247,0 / 0,52709,2021-03-23 20:04:21:591
-0.26825,0.12179,9.54966,-0.01766,0.39223,9.79879,4.4E-4,0.01131,-7.3E-4,35.946,25.873,-46.847,307.803,-2.292,0.103,5.0,63.1357,23.000332,120.219536,45.617,NaN,4.228,8.0,256.247,0 / 0,52809,2021-03-23 20:04:21:691
-0.08383,0.22957,9.90413,-0.04722,0.37632,9.79931,0.00803,-0.00219,0.00425,34.715,23.736,-45.967,306.521,-2.199,0.276,5.0,63.1357,23.000332,120.219536,45.617,NaN,4.228,8.0,256.247,0 / 0,52909,2021-03-23 20:04:21:791
-0.13412,0.33974,9.91371,-0.06307,0.35776,9.79992,0.0083,0.00483,0.0016,35.035,24.506,-46.679,307.597,-2.142,0.322,5.0,63.1357,23.000332,120.219536,45.617,NaN,4.228,8.0,256.247,0 / 0,53009,2021-03-23 20:04:21:891
-0.07664,0.34453,9.84904,-0.05985,0.35675,9.79998,0.00278,-0.00281,0.00286,34.169,22.487,-44.776,305.017,-2.07,0.369,5.0,63.5528,23.000332,120.219536,45.617,NaN,4.228,8.0,256.247,0 / 0,53109,2021-03-23 20:04:21:991
-0.30897,0.18167,9.97838,-0.05981,0.35557,9.80002,-0.00876,-0.0066,4.8E-4,33.969,22.794,-45.088,306.135,-2.078,0.35,5.0,63.5528,23.000332,120.219536,45.617,NaN,4.228,8.0,256.247,0 / 0,53208,2021-03-23 20:04:22:090
0.08383,0.17209,9.73648,-0.07653,0.32619,9.80093,-0.00239,-0.01576,0.00286,33.969,22.794,-45.088,306.135,-2.078,0.35,5.0,63.5528,23.000332,120.219536,45.617,NaN,4.228,8.0,256.247,0 / 0,53308,2021-03-23 20:04:22:190
0.16526,0.26789,9.82749,-0.0577,0.32588,9.80106,0.00133,-0.0108,0.00436,33.713,20.892,-43.303,303.604,-1.904,0.337,5.0,62.821,23.000332,120.219536,45.617,NaN,4.228,8.0,256.247,0 / 0,53410,2021-03-23 20:04:22:292
0.01916,0.36369,9.94724,-0.02024,0.32562,9.80122,0.00135,0.00838,0.00324,33.774,21.354,-41.272,303.387,-1.903,0.118,5.0,62.821,23.000332,120.219536,45.617,NaN,4.228,8.0,256.247,0 / 0,53509,2021-03-23 20:04:22:391
-0.21077,0.22717,9.73168,-0.00202,0.32125,9.80139,0.00922,0.01672,0.00534,33.846,19.684,-40.317,302.072,-1.877,0.012,5.0,62.821,23.000332,120.219536,45.617,NaN,4.228,8.0,256.247,0 / 0,53608,2021-03-23 20:04:22:490
-0.17484,0.18406,9.70534,-0.05675,0.31132,9.80154,0.00726,0.01288,0.00215,33.252,21.535,-41.681,305.458,-1.819,0.332,5.0,63.0038,23.000332,120.219536,45.617,NaN,4.228,8.0,256.247,0 / 0,53709,2021-03-23 20:04:22:591
-0.11975,0.09544,9.82988,-0.08501,0.30754,9.80146,-8.2E-4,-0.00269,0.00751,33.305,21.248,-42.074,304.365,-1.797,0.497,5.0,63.0038,23.000332,120.219536,45.617,NaN,4.228,8.0,256.247,0 / 0,53809,2021-03-23 20:04:22:691
-0.11257,0.01401,9.76043,-0.08527,0.2706,9.80254,-0.00563,-0.01116,0.01002,33.58,20.189,-39.035,302.054,-1.581,0.498,5.0,63.0038,23.000332,120.219536,45.617,NaN,4.228,8.0,256.247,0 / 0,53909,2021-03-23 20:04:22:791
0.07425,-0.03868,9.70294,-0.07484,0.20092,9.80431,-0.00683,-0.02512,0.0062,32.967,21.257,-36.78,303.627,-1.174,0.437,5.0,62.6278,23.000332,120.219536,45.617,NaN,4.228,8.0,256.247,0 / 0,54009,2021-03-23 20:04:22:891
0.36884,-0.38357,9.7724,-0.05169,0.15879,9.80523,-0.01837,-0.01327,0.00858,34.004,22.543,-37.024,304.919,-0.928,0.302,5.0,62.6278,23.000332,120.219536,45.617,NaN,4.228,8.0,256.247,0 / 0,54109,2021-03-23 20:04:22:991
0.28501,-0.5632,9.74845,0.02413,0.04276,9.80653,-0.01933,0.00842,0.00472,34.297,22.783,-34.871,304.185,-0.25,-0.141,5.0,62.6278,23.000332,120.219536,45.617,NaN,4.228,8.0,256.247,0 / 0,54210,2021-03-23 20:04:23:092
0.0982,-0.64224,9.89694,0.05534,-0.09809,9.806,-0.01507,0.01708,5.6E-4,34.083,21.296,-37.501,301.077,0.573,-0.323,5.0,62.6278,23.000332,120.219536,45.617,NaN,4.228,8.0,256.247,0 / 0,54309,2021-03-23 20:04:23:191
-0.17724,-0.94642,9.95682,0.04913,-0.16822,9.80508,-0.00563,0.0183,0.00216,34.952,24.058,-37.543,303.563,0.983,-0.287,5.0,63.1185,23.000332,120.219536,45.617,NaN,4.228,8.0,256.247,0 / 0,54409,2021-03-23 20:04:23:291
-0.18682,-1.09491,10.00472,-0.00151,-0.32389,9.8013,-0.0082,0.00622,0.00178,34.124,23.029,-35.124,302.709,1.893,0.009,5.0,63.1185,23.000332,120.219536,45.617,NaN,4.228,8.0,256.247,0 / 0,54511,2021-03-23 20:04:23:393
0.01677,-1.0494,9.92329,-0.0314,-0.47756,9.79497,-7.7E-4,-0.0147,0.00244,34.085,23.464,-34.203,302.163,2.791,0.184,5.0,63.1185,23.000332,120.219536,45.617,NaN,4.228,8.0,256.247,0 / 0,54609,2021-03-23 20:04:23:491
0.12215,-1.09731,10.03107,-0.02125,-0.54304,9.79158,0.00276,-0.01707,0.00548,33.428,23.434,-35.489,302.559,3.174,0.124,5.0,62.1116,23.000332,120.219536,45.617,NaN,4.228,8.0,256.247,0 / 0,54709,2021-03-23 20:04:23:591
0.22753,-0.92246,9.77001,0.03719,-0.65296,9.78482,0.00585,-0.01061,0.00309,34.427,25.496,-37.343,303.374,3.818,-0.218,5.0,62.1116,23.000332,120.219536,45.617,NaN,4.228,8.0,256.247,0 / 0,54809,2021-03-23 20:04:23:691
0.09341,-0.5177,9.81551,0.0697,-0.68016,9.78279,0.00972,-0.00392,0.00226,33.654,23.85,-35.17,302.157,3.977,-0.408,5.0,62.1116,23.000332,120.219536,45.617,NaN,4.228,8.0,256.247,0 / 0,54909,2021-03-23 20:04:23:791
0.00239,-0.19197,9.84186,0.06713,-0.63945,9.78555,0.01406,-3.1E-4,0.00393,32.299,24.515,-33.655,305.208,3.739,-0.393,5.0,61.4744,23.000332,120.219536,45.617,NaN,4.228,8.0,256.247,0 / 0,55009,2021-03-23 20:04:23:891
0.07664,0.00204,9.77001,0.05948,-0.54144,9.79151,0.00897,-0.00129,0.002,33.891,25.654,-34.846,305.094,3.165,-0.348,5.0,61.4744,23.000332,120.219536,45.617,NaN,4.228,8.0,256.247,0 / 0,55110,2021-03-23 20:04:23:992
0.00718,-0.21592,10.03107,0.0559,-0.46565,9.79543,-6.1E-4,7.7E-4,0.0018,32.003,23.218,-36.419,303.447,2.722,-0.327,5.0,61.4744,23.000332,120.219536,45.617,NaN,4.228,8.0,256.247,0 / 0,55208,2021-03-23 20:04:24:090
-0.05509,-0.26861,9.93527,0.05778,-0.43842,9.79668,-0.00136,0.00135,9.6E-4,32.251,24.974,-34.277,306.08,2.562,-0.338,5.0,59.3956,23.000332,120.219536,45.617,NaN,4.228,8.0,256.247,0 / 0,55309,2021-03-23 20:04:24:191
-0.07185,-0.24466,9.63109,0.04474,-0.39172,9.79872,5.0E-5,3.1E-4,-3.2E-4,33.164,23.415,-33.426,303.172,2.289,-0.262,5.0,59.3956,23.000332,120.219536,45.617,NaN,4.228,8.0,256.247,0 / 0,55408,2021-03-23 20:04:24:290
0.0,-0.24705,9.89694,0.0343,-0.35002,9.80034,-0.00129,-3.1E-4,1.0E-5,32.393,25.961,-35.061,307.601,2.045,-0.201,5.0,59.3956,23.000332,120.219536,45.617,NaN,4.228,8.0,256.247,0 / 0,55509,2021-03-23 20:04:24:391
-0.07904,-0.03149,9.97359,0.03339,-0.33223,9.80096,-1.6E-4,-0.00185,2.2E-4,33.908,26.714,-36.532,307.021,1.941,-0.195,5.0,59.3956,23.000332,120.219536,45.617,NaN,4.228,8.0,256.247,0 / 0,55609,2021-03-23 20:04:24:491
-0.14131,0.87624,9.88736,0.02798,-0.29923,9.80204,0.00116,-0.00235,-4.8E-4,33.788,24.51,-34.112,305.089,1.749,-0.164,5.0,59.6418,23.000332,120.219536,45.617,NaN,4.228,8.0,256.247,0 / 0,55708,2021-03-23 20:04:24:590
-0.10299,1.05827,9.69097,0.01773,-0.17058,9.80515,0.0076,-0.00182,0.00131,33.104,25.287,-33.408,306.456,0.997,-0.104,5.0,59.6418,23.000332,120.219536,45.617,NaN,4.228,8.0,256.247,0 / 0,55809,2021-03-23 20:04:24:691
-0.08862,0.70619,9.50655,0.01649,-0.14395,9.80558,0.00879,-0.001,4.9E-4,33.187,25.329,-35.602,306.507,0.841,-0.096,5.0,59.6418,23.000332,120.219536,45.617,NaN,4.228,8.0,256.247,0 / 0,55908,2021-03-23 20:04:24:790
