ACCELEROMETER X (m/s²),ACCELEROMETER Y (m/s²),ACCELEROMETER Z (m/s²),GRAVITY X (m/s²),GRAVITY Y (m/s²),GRAVITY Z (m/s²),GYROSCOPE X (rad/s),GYROSCOPE Y (rad/s),GYROSCOPE Z (rad/s),MAGNETIC FIELD X (μT),MAGNETIC FIELD Y (μT),MAGNETIC FIELD Z (μT),ORIENTATION Z (azimuth °),ORIENTATION X (pitch °),ORIENTATION Y (roll °),PROXIMITY (m),SOUND LEVEL (dB),LOCATION Latitude : ,LOCATION Longitude : ,LOCATION Altitude ( m),LOCATION Altitude-google ( m),LOCATION Speed ( m/s),LOCATION Accuracy ( m),LOCATION ORIENTATION (°),Satellites in range,Time since start in ms ,YYYY-MO-DD HH-MI-SS_SSS
0.04311,0.77565,9.68618,0.01823,0.83909,9.77067,-1.2E-4,-0.0013,-2.7E-4,-9.5,20.842,-19.724,21.601,-4.918,-0.104,5.0,61.3791,23.000008,120.21943,47.627,NaN,3.001,48.0,184.546,0 / 0,9,2021-03-23 20:33:26:703
0.03593,0.91456,9.93766,0.01901,0.8403,9.77056,-6.2E-4,-8.7E-4,1.5E-4,-9.574,21.266,-21.504,23.582,-4.922,-0.11,5.0,61.3791,23.000008,120.21943,47.627,NaN,3.001,48.0,184.546,0 / 0,109,2021-03-23 20:33:26:803
-0.01677,0.87145,9.72929,0.01831,0.84083,9.77052,-8.9E-4,-8.5E-4,2.3E-4,-9.251,21.591,-22.664,20.548,-4.915,-0.111,5.0,61.3791,23.000008,120.21943,47.627,NaN,3.001,48.0,184.546,0 / 0,210,2021-03-23 20:33:26:904
-0.03353,0.78044,9.60475,0.01692,0.84507,9.77016,-4.4E-4,-0.00156,2.1E-4,-9.145,22.235,-21.092,20.694,-4.943,-0.099,5.0,66.1183,23.000008,120.21943,47.627,NaN,3.001,48.0,184.546,0 / 0,309,2021-03-23 20:33:27:003
-0.00719,0.76846,9.72211,0.01519,0.84383,9.77027,5.0E-5,-0.00128,5.0E-5,-10.189,20.712,-21.309,23.682,-4.925,-0.088,5.0,66.1183,23.000008,120.21943,47.627,NaN,3.001,48.0,184.546,0 / 0,409,2021-03-23 20:33:27:103
-0.00719,0.84271,9.73887,0.01658,0.84097,9.77051,-9.0E-4,-0.00133,-1.1E-4,-9.103,20.531,-21.502,21.451,-4.919,-0.097,5.0,66.1183,23.000008,120.21943,47.627,NaN,3.001,48.0,184.546,0 / 0,510,2021-03-23 20:33:27:204
0.0503,0.91456,9.97838,0.01543,0.83979,9.77061,-6.2E-4,-0.00206,-7.0E-5,-9.94,20.933,-23.435,23.501,-4.917,-0.11,5.0,61.8117,23.000008,120.21943,47.627,NaN,3.001,48.0,184.546,0 / 0,609,2021-03-23 20:33:27:303
0.09341,0.85229,9.82988,0.01825,0.84148,9.77046,-7.2E-4,-0.00205,1.1E-4,-8.74,20.288,-21.791,22.341,-4.905,-0.096,5.0,61.8117,23.000008,120.21943,47.627,NaN,3.001,48.0,184.546,0 / 0,709,2021-03-23 20:33:27:403
0.00479,0.74691,9.65025,0.02222,0.84355,9.77028,-4.6E-4,-3.6E-4,2.2E-4,-9.949,20.509,-20.712,23.668,-4.922,-0.107,5.0,61.8117,23.000008,120.21943,47.627,NaN,3.001,48.0,184.546,0 / 0,809,2021-03-23 20:33:27:503
-0.01198,0.83552,9.70534,0.02115,0.84357,9.77028,-2.6E-4,-2.1E-4,-6.0E-5,-10.062,20.969,-22.003,23.566,-4.935,-0.124,5.0,65.6161,23.000008,120.21943,47.627,NaN,3.001,48.0,184.546,0 / 0,908,2021-03-23 20:33:27:602
-0.00958,0.90977,9.80114,0.00962,0.84201,9.77043,-3.0E-5,-0.00185,-6.0E-5,-11.155,20.339,-20.142,26.873,-4.923,-0.092,5.0,65.6161,23.000008,120.21943,47.627,NaN,3.001,48.0,184.546,0 / 0,1008,2021-03-23 20:33:27:702
0.03353,0.85708,9.70534,0.0103,0.843,9.77034,-1.3E-4,-0.00277,4.2E-4,-9.682,21.329,-21.924,23.62,-4.931,-0.06,5.0,65.6161,23.000008,120.21943,47.627,NaN,3.001,48.0,184.546,0 / 0,1109,2021-03-23 20:33:27:803
0.00718,0.73733,9.7748,0.02408,0.8402,9.77056,-3.9E-4,1.0E-4,2.5E-4,-8.959,22.24,-23.322,20.557,-4.92,-0.099,5.0,65.6161,23.000008,120.21943,47.627,NaN,3.001,48.0,184.546,0 / 0,1209,2021-03-23 20:33:27:903
-0.06467,0.80678,9.73887,0.01529,0.83897,9.77069,-5.8E-4,-3.2E-4,1.1E-4,-9.416,21.715,-21.97,20.613,-4.922,-0.116,5.0,61.5025,23.000008,120.21943,47.627,NaN,3.001,48.0,184.546,0 / 0,1308,2021-03-23 20:33:28:002
0.04311,0.92175,9.95203,0.00895,0.84263,9.77038,-3.7E-4,-0.00326,2.7E-4,-9.419,20.723,-21.478,21.537,-4.908,-0.09,5.0,61.5025,23.000008,120.21943,47.627,NaN,3.001,48.0,184.546,0 / 0,1408,2021-03-23 20:33:28:102
0.06227,0.90977,9.92329,0.01252,0.84173,9.77045,-5.1E-4,-0.00214,4.2E-4,-8.13,21.812,-21.4,18.578,-4.924,-0.073,5.0,61.5025,23.000008,120.21943,47.627,NaN,3.001,48.0,184.546,0 / 0,1508,2021-03-23 20:33:28:202
-0.03593,0.78283,9.62391,0.02055,0.84198,9.77042,-9.3E-4,-1.4E-4,-6.0E-5,-9.27,22.113,-19.773,20.76,-4.937,-0.11,5.0,63.9688,23.000008,120.21943,47.627,NaN,3.001,48.0,184.546,0 / 0,1608,2021-03-23 20:33:28:302
0.02635,0.92175,9.88257,0.01669,0.84014,9.77058,-7.2E-4,-2.2E-4,2.7E-4,-10.012,20.871,-22.052,23.594,-4.915,-0.098,5.0,63.9688,23.000008,120.21943,47.627,NaN,3.001,48.0,184.546,0 / 0,1709,2021-03-23 20:33:28:403
0.06227,0.83073,9.76522,0.01232,0.83935,9.77066,-8.8E-4,-0.00251,2.1E-4,-8.941,21.564,-21.247,20.721,-4.929,-0.07,5.0,63.9688,23.000008,120.21943,47.627,NaN,3.001,48.0,184.546,0 / 0,1809,2021-03-23 20:33:28:503
0.03832,0.81876,9.65025,0.01588,0.83846,9.77073,-0.001,-0.00192,0.0,-8.371,22.079,-22.26,18.499,-4.903,-0.096,5.0,62.7854,23.000008,120.21943,47.627,NaN,3.001,48.0,184.546,0 / 0,1910,2021-03-23 20:33:28:604
0.05988,0.83073,9.66702,0.01892,0.84091,9.77051,-5.1E-4,-2.7E-4,-1.1E-4,-8.864,21.341,-22.232,21.459,-4.905,-0.093,5.0,62.7854,23.000008,120.21943,47.627,NaN,3.001,48.0,184.546,0 / 0,2009,2021-03-23 20:33:28:703
-0.00479,0.93133,9.85144,0.01799,0.84532,9.77013,-7.7E-4,-0.00129,-1.1E-4,-9.789,20.55,-21.049,23.662,-4.945,-0.106,5.0,62.7854,23.000008,120.21943,47.627,NaN,3.001,48.0,184.546,0 / 0,2109,2021-03-23 20:33:28:803
0.04551,0.85229,9.77001,0.01289,0.84114,9.7705,-4.0E-4,-0.00149,3.7E-4,-9.063,22.348,-22.553,20.575,-4.912,-0.081,5.0,64.6226,23.000008,120.21943,47.627,NaN,3.001,48.0,184.546,0 / 0,2209,2021-03-23 20:33:28:903
-0.02635,0.80439,9.71252,0.019,0.83423,9.77109,-9.0E-5,0.00198,-0.00155,-10.028,22.261,-21.758,22.709,-4.88,-0.111,5.0,64.6226,23.000008,120.21943,47.627,NaN,3.001,48.0,184.546,0 / 0,2308,2021-03-23 20:33:29:002
0.0982,0.81876,9.63109,0.01612,0.84549,9.77012,9.8E-4,0.00299,0.00154,-9.025,21.348,-20.607,21.52,-4.908,-0.111,5.0,64.6226,23.000008,120.21943,47.627,NaN,3.001,48.0,184.546,0 / 0,2409,2021-03-23 20:33:29:103
-0.08622,0.87145,9.89934,0.01008,0.84943,9.76979,-3.1E-4,0.00509,-4.4E-4,-9.583,21.513,-21.973,22.689,-4.975,-0.1,5.0,65.1675,23.000008,120.21943,47.627,NaN,3.001,48.0,184.546,0 / 0,2510,2021-03-23 20:33:29:204
-0.03593,0.92654,9.95922,0.00207,0.84773,9.76994,-4.0E-4,-5.9E-4,2.6E-4,-9.416,21.113,-21.145,21.545,-4.969,-0.059,5.0,65.1675,23.000008,120.21943,47.627,NaN,3.001,48.0,184.546,0 / 0,2610,2021-03-23 20:33:29:304
-0.0982,1.01995,9.67181,-0.01127,0.8458,9.7701,6.9E-4,-0.00114,0.00136,-8.809,19.806,-20.579,22.547,-4.948,0.066,5.0,65.1675,23.000008,120.21943,47.627,NaN,3.001,48.0,184.546,0 / 0,2709,2021-03-23 20:33:29:403
-0.12454,1.22592,9.59756,-0.01691,0.88383,9.76673,0.0073,0.00207,0.00342,-9.785,21.133,-22.631,23.618,-5.003,0.06,5.0,65.1675,23.000008,120.21943,47.627,NaN,3.001,48.0,184.546,0 / 0,2809,2021-03-23 20:33:29:503
-0.14371,1.46064,9.59756,-0.03109,0.93657,9.76178,0.01236,0.0025,0.00634,-8.792,21.59,-21.534,20.704,-5.48,0.182,5.0,62.5672,23.000008,120.21943,47.627,NaN,3.001,48.0,184.546,0 / 0,2909,2021-03-23 20:33:29:603
-0.15089,1.47501,9.56882,-0.06544,1.06259,9.74869,0.01293,0.00298,0.01201,-9.939,22.244,-24.43,22.587,-5.831,0.279,5.0,62.5672,23.000008,120.21943,47.627,NaN,3.001,48.0,184.546,0 / 0,3008,2021-03-23 20:33:29:702
-0.11257,1.49896,9.63349,-0.09407,1.16673,9.73654,0.00676,0.00159,0.01544,-9.269,20.495,-21.107,22.392,-6.549,0.464,5.0,62.5672,23.000008,120.21943,47.627,NaN,3.001,48.0,184.546,0 / 0,3109,2021-03-23 20:33:29:803
-0.08383,1.37681,9.69336,-0.10098,1.20643,9.73164,-0.00304,-4.0E-4,0.02119,-8.836,21.181,-23.706,21.285,-6.833,0.554,5.0,65.1103,23.000008,120.21943,47.627,NaN,3.001,48.0,184.546,0 / 0,3209,2021-03-23 20:33:29:903
-0.10778,1.29777,9.72689,-0.1097,1.24805,9.72629,-0.00307,-0.0019,0.0251,-9.827,20.484,-21.781,24.369,-7.312,0.646,5.0,65.1103,23.000008,120.21943,47.627,NaN,3.001,48.0,184.546,0 / 0,3308,2021-03-23 20:33:30:002
0.11496,1.15407,9.55924,-0.0921,1.25641,9.7254,-0.00357,-0.00282,0.02539,-8.143,20.9,-22.131,19.217,-7.35,0.618,5.0,65.1103,23.000008,120.21943,47.627,NaN,3.001,48.0,184.546,0 / 0,3409,2021-03-23 20:33:30:103
0.13173,1.24748,9.54966,-0.08257,1.25274,9.72596,-0.00283,-7.5E-4,0.02356,-10.237,22.003,-23.423,22.39,-7.339,0.486,5.0,61.7313,23.000008,120.21943,47.627,NaN,3.001,48.0,184.546,0 / 0,3510,2021-03-23 20:33:30:204
-0.07904,1.384,9.75563,-0.06483,1.25997,9.72516,3.5E-4,0.00202,0.01969,-9.999,20.924,-23.6,23.112,-7.355,0.467,5.0,61.7313,23.000008,120.21943,47.627,NaN,3.001,48.0,184.546,0 / 0,3609,2021-03-23 20:33:30:303
-0.14131,1.44387,9.81551,-0.06035,1.28037,9.72252,-2.7E-4,0.00408,0.01988,-9.069,21.83,-23.998,20.151,-7.423,0.336,5.0,61.7313,23.000008,120.21943,47.627,NaN,3.001,48.0,184.546,0 / 0,3708,2021-03-23 20:33:30:402
-0.04551,1.24987,9.79635,-0.06488,1.28568,9.72179,-0.00338,0.00234,0.02348,-8.961,21.501,-23.922,20.146,-7.502,0.356,5.0,61.7313,23.000008,120.21943,47.627,NaN,3.001,48.0,184.546,0 / 0,3808,2021-03-23 20:33:30:502
-0.0982,1.27861,9.63109,-0.06326,1.28149,9.72235,-0.00178,-0.00204,0.02046,-9.333,21.593,-22.707,20.244,-7.509,0.373,5.0,65.3751,23.000008,120.21943,47.627,NaN,3.001,48.0,184.546,0 / 0,3909,2021-03-23 20:33:30:603
0.0958,1.20437,9.57361,-0.04656,1.29126,9.72116,1.5E-4,-0.00906,0.01344,-9.351,21.611,-24.789,20.05,-7.523,0.349,5.0,65.3751,23.000008,120.21943,47.627,NaN,3.001,48.0,184.546,0 / 0,4009,2021-03-23 20:33:30:703
0.03353,1.33849,9.89934,-0.02971,1.28936,9.72147,-5.0E-5,-0.00524,0.01223,-8.098,22.5,-24.881,17.204,-7.555,0.175,5.0,65.3751,23.000008,120.21943,47.627,NaN,3.001,48.0,184.546,0 / 0,4109,2021-03-23 20:33:30:803
0.04551,1.33131,9.73408,-0.00968,1.29234,9.72112,5.1E-4,0.00182,0.01224,-8.894,22.593,-25.193,19.121,-7.562,0.101,5.0,61.9246,23.000008,120.21943,47.627,NaN,3.001,48.0,184.546,0 / 0,4209,2021-03-23 20:33:30:903
-0.08862,1.21395,9.54008,-0.00167,1.29408,9.72089,-7.0E-5,0.00471,0.00937,-8.943,20.68,-25.556,20.392,-7.588,0.031,5.0,61.9246,23.000008,120.21943,47.627,NaN,3.001,48.0,184.546,0 / 0,4309,2021-03-23 20:33:31:003
0.00479,1.19958,9.62151,-0.00714,1.29184,9.72119,-9.3E-4,0.002,0.00859,-7.151,22.277,-26.908,15.435,-7.583,0.01,5.0,61.9246,23.000008,120.21943,47.627,NaN,3.001,48.0,184.546,0 / 0,4409,2021-03-23 20:33:31:103
0.05269,1.1876,9.75563,-6.0E-4,1.28735,9.72179,-0.0021,-0.00269,0.00431,-7.406,20.118,-26.613,16.677,-7.543,0.004,5.0,66.2859,23.000008,120.21943,47.627,NaN,3.001,48.0,184.546,0 / 0,4509,2021-03-23 20:33:31:203
0.26825,1.32173,9.97119,0.0441,1.26307,9.72487,-0.00448,-0.00982,-0.01261,-6.28,19.633,-24.623,14.489,-7.464,-0.082,5.0,66.2859,23.000008,120.21943,47.627,NaN,3.001,48.0,184.546,0 / 0,4609,2021-03-23 20:33:31:303
0.31855,1.29777,9.81551,0.06873,1.25971,9.72516,-0.0021,-0.00887,-0.02036,-7.33,19.405,-25.591,17.076,-7.38,-0.405,5.0,66.2859,23.000008,120.21943,47.627,NaN,3.001,48.0,184.546,0 / 0,4709,2021-03-23 20:33:31:403
0.22035,1.2379,9.53289,0.12177,1.25775,9.7249,0.00304,-0.00102,-0.0334,-6.689,19.413,-26.054,16.871,-7.374,-0.596,5.0,61.8018,23.000008,120.21943,47.627,NaN,3.001,48.0,184.546,0 / 0,4809,2021-03-23 20:33:31:503
0.10059,1.32412,9.5784,0.13595,1.27174,9.72289,0.00346,9.8E-4,-0.04086,-5.539,19.818,-27.015,13.565,-7.408,-0.788,5.0,61.8018,23.000008,120.21943,47.627,NaN,3.001,48.0,184.546,0 / 0,4908,2021-03-23 20:33:31:602
-0.00479,1.20676,9.76043,0.13125,1.28134,9.72169,-0.00263,0.00308,-0.04609,-5.565,20.683,-27.658,12.911,-7.451,-0.801,5.0,61.8018,23.000008,120.21943,47.627,NaN,3.001,48.0,184.546,0 / 0,5009,2021-03-23 20:33:31:703
-0.10538,1.26185,9.53289,0.10145,1.27974,9.72226,-0.00573,0.00205,-0.04547,-4.171,20.096,-29.044,8.897,-7.498,-0.598,5.0,61.8018,23.000008,120.21943,47.627,NaN,3.001,48.0,184.546,0 / 0,5108,2021-03-23 20:33:31:802
-0.06706,1.30017,9.82749,0.05833,1.27753,9.72291,-0.00412,-0.00342,-0.04615,-4.683,18.881,-27.253,12.053,-7.512,-0.473,5.0,65.5451,23.000008,120.21943,47.627,NaN,3.001,48.0,184.546,0 / 0,5210,2021-03-23 20:33:31:904
0.10778,1.23311,9.79635,0.04484,1.27258,9.72363,-0.00253,-0.0067,-0.04544,-4.106,19.33,-26.338,9.907,-7.456,-0.264,5.0,65.5451,23.000008,120.21943,47.627,NaN,3.001,48.0,184.546,0 / 0,5309,2021-03-23 20:33:32:003
0.0479,1.10377,9.67181,0.04613,1.25912,9.72537,0.00147,-0.00565,-0.04848,-2.195,19.977,-28.353,4.606,-7.435,-0.226,5.0,65.5451,23.000008,120.21943,47.627,NaN,3.001,48.0,184.546,0 / 0,5410,2021-03-23 20:33:32:104
-0.25148,1.3361,9.54966,0.04757,1.24226,9.72754,1.5E-4,-3.0E-5,-0.04981,-2.628,17.271,-26.954,8.002,-7.281,-0.315,5.0,62.2198,23.000008,120.21943,47.627,NaN,3.001,48.0,184.546,0 / 0,5510,2021-03-23 20:33:32:204
-0.30178,1.21874,9.72929,0.01739,1.25036,9.7266,-0.00666,7.1E-4,-0.03581,-2.634,17.491,-27.966,7.984,-7.278,-0.28,5.0,62.2198,23.000008,120.21943,47.627,NaN,3.001,48.0,184.546,0 / 0,5608,2021-03-23 20:33:32:302
-0.20119,1.22353,9.98556,-0.05891,1.23804,9.72801,-0.00622,8.7E-4,-0.02484,-3.835,17.126,-25.602,11.662,-7.253,0.347,5.0,62.2198,23.000008,120.21943,47.627,NaN,3.001,48.0,184.546,0 / 0,5709,2021-03-23 20:33:32:403
-0.11496,1.17323,9.71731,-0.08833,1.21828,9.73028,-0.00364,0.00156,-0.01894,-2.873,16.619,-23.684,9.132,-7.174,0.46,5.0,65.0116,23.000008,120.21943,47.627,NaN,3.001,48.0,184.546,0 / 0,5808,2021-03-23 20:33:32:502
-0.21316,1.22592,9.54487,-0.09208,1.21404,9.73078,-0.00372,0.00452,-0.01388,-2.31,14.584,-23.951,7.11,-7.111,0.542,5.0,65.0116,23.000008,120.21943,47.627,NaN,3.001,48.0,184.546,0 / 0,5910,2021-03-23 20:33:32:604
-0.22035,1.15167,9.55924,-0.12281,1.21013,9.73092,-0.00425,0.01279,0.00151,-1.443,14.881,-24.828,4.048,-7.064,0.621,5.0,65.0116,23.000008,120.21943,47.627,NaN,3.001,48.0,184.546,0 / 0,6009,2021-03-23 20:33:32:703
-0.30418,1.3361,9.88257,-0.16876,1.20318,9.7311,-0.00572,0.00888,0.00354,-1.079,13.951,-22.574,4.57,-7.091,0.84,5.0,64.1702,23.000008,120.21943,47.627,NaN,3.001,48.0,184.546,0 / 0,6109,2021-03-23 20:33:32:803
-0.12454,1.0415,9.84904,-0.1879,1.20446,9.73059,-0.00521,-0.00381,0.0067,-1.409,13.193,-21.708,5.061,-7.047,0.994,5.0,64.1702,23.000008,120.21943,47.627,NaN,3.001,48.0,184.546,0 / 0,6209,2021-03-23 20:33:32:903
-0.09341,1.13491,10.03346,-0.18199,1.16495,9.73551,-4.2E-4,-0.00165,0.01159,-1.347,12.345,-19.878,5.491,-6.822,1.071,5.0,64.1702,23.000008,120.21943,47.627,NaN,3.001,48.0,184.546,0 / 0,6309,2021-03-23 20:33:33:003
-0.0982,1.08222,9.53768,-0.14747,1.14347,9.73864,0.00739,0.0028,0.00815,-1.389,11.854,-20.311,5.403,-6.747,1.001,5.0,64.1702,23.000008,120.21943,47.627,NaN,3.001,48.0,184.546,0 / 0,6409,2021-03-23 20:33:33:103
-0.18921,1.12293,9.31015,-0.14196,1.14185,9.73891,0.00432,0.00592,0.00505,-0.301,12.857,-18.696,1.049,-6.686,0.835,5.0,64.4546,23.000008,120.21943,47.627,NaN,3.001,48.0,184.546,0 / 0,6508,2021-03-23 20:33:33:202
-0.28501,1.0415,9.77001,-0.15381,1.15128,9.73762,-0.0061,0.0114,0.01921,-0.406,11.686,-16.58,1.019,-6.729,0.834,5.0,64.4546,23.000008,120.21943,47.627,NaN,3.001,48.0,184.546,0 / 0,6609,2021-03-23 20:33:33:303
-0.31376,1.12772,9.96161,-0.18241,1.13515,9.73902,-0.00391,0.01293,0.02388,-0.755,12.175,-18.363,5.338,-6.732,0.989,5.0,64.4546,23.000008,120.21943,47.627,NaN,3.001,48.0,184.546,0 / 0,6708,2021-03-23 20:33:33:402
-0.15089,1.08222,9.85623,-0.19855,1.11877,9.7406,0.00845,0.00502,0.0212,-1.898,11.744,-16.263,9.482,-6.647,1.073,5.0,65.1962,23.000008,120.21943,47.627,NaN,3.001,48.0,184.546,0 / 0,6808,2021-03-23 20:33:33:502
-0.31376,1.11096,9.61912,-0.20065,1.11093,9.74146,0.00699,0.00507,0.02339,0.1,12.55,-16.608,1.351,-6.505,1.18,5.0,65.1962,23.000008,120.21943,47.627,NaN,3.001,48.0,184.546,0 / 0,6909,2021-03-23 20:33:33:603
-0.16526,1.06066,9.57121,-0.22309,1.12223,9.73967,-0.00418,-0.00377,0.02774,-1.952,13.201,-16.853,9.078,-6.522,1.253,5.0,65.1962,23.000008,120.21943,47.627,NaN,3.001,48.0,184.546,0 / 0,7008,2021-03-23 20:33:33:702
-0.0982,1.04629,9.9664,-0.21938,1.11512,9.74057,-0.00589,-0.00295,0.02951,0.791,14.637,-16.418,357.81,-6.529,1.29,5.0,62.3338,23.000008,120.21943,47.627,NaN,3.001,48.0,184.546,0 / 0,7109,2021-03-23 20:33:33:803
0.0,1.06306,9.74126,-0.19257,1.09191,9.74377,-0.00285,-0.01411,0.0261,-1.825,12.788,-14.365,9.032,-6.47,1.243,5.0,62.3338,23.000008,120.21943,47.627,NaN,3.001,48.0,184.546,0 / 0,7210,2021-03-23 20:33:33:904
-0.15089,1.03911,9.34129,-0.14975,1.0767,9.74621,-0.00232,-0.00783,0.02439,-1.466,14.668,-16.192,4.389,-6.314,1.001,5.0,62.3338,23.000008,120.21943,47.627,NaN,3.001,48.0,184.546,0 / 0,7310,2021-03-23 20:33:34:004
0.05509,0.9912,9.81072,-0.13973,1.082,9.74578,-0.00174,-0.0058,0.02273,-1.358,15.038,-16.696,4.299,-6.303,0.88,5.0,65.7044,23.000008,120.21943,47.627,NaN,3.001,48.0,184.546,0 / 0,7408,2021-03-23 20:33:34:102
0.02635,0.9457,9.88497,-0.09712,1.07311,9.74728,-0.00505,0.00116,0.02049,-2.975,14.823,-15.154,10.775,-6.282,0.571,5.0,65.7044,23.000008,120.21943,47.627,NaN,3.001,48.0,184.546,0 / 0,7509,2021-03-23 20:33:34:203
0.06467,0.98402,10.01191,-0.06183,1.05837,9.74917,-0.00343,0.00792,0.01106,-1.44,14.032,-15.165,4.115,-6.23,0.452,5.0,65.7044,23.000008,120.21943,47.627,NaN,3.001,48.0,184.546,0 / 0,7609,2021-03-23 20:33:34:303
-0.17245,0.91456,9.7748,-0.05344,1.05037,9.75009,0.00321,0.01578,0.00779,-1.918,14.756,-13.237,7.24,-6.149,0.314,5.0,61.1324,23.000008,120.21943,47.627,NaN,3.001,48.0,184.546,0 / 0,7709,2021-03-23 20:33:34:403
-0.24669,0.91935,9.576,-0.09353,1.04398,9.75047,0.00526,0.01303,0.0119,-2.16,14.487,-12.645,7.793,-6.129,0.418,5.0,61.1324,23.000008,120.21943,47.627,NaN,3.001,48.0,184.546,0 / 0,7808,2021-03-23 20:33:34:502
-0.20837,1.01755,10.07897,-0.12598,1.0322,9.75136,-0.00335,0.01166,0.0154,-2.454,14.487,-12.149,8.078,-6.042,0.74,5.0,61.1324,23.000008,120.21943,47.627,NaN,3.001,48.0,184.546,0 / 0,7909,2021-03-23 20:33:34:603
-0.3425,0.81157,9.576,-0.13969,1.01204,9.75329,-0.00278,0.00254,0.01808,-2.837,15.13,-12.618,11.01,-6.042,0.74,5.0,61.1324,23.000008,120.21943,47.627,NaN,3.001,48.0,184.546,0 / 0,8009,2021-03-23 20:33:34:703
-0.20119,1.03671,9.12573,-0.16131,0.98461,9.75576,0.00101,-1.3E-4,0.02096,-1.382,13.816,-11.135,4.495,-5.762,0.947,5.0,65.1967,23.000008,120.21943,47.627,NaN,3.001,48.0,184.546,0 / 0,8109,2021-03-23 20:33:34:803
-0.21316,0.96486,9.59037,-0.16317,0.98639,9.75555,-0.01453,-0.00387,0.02003,-2.034,14.747,-10.136,7.739,-5.773,0.944,5.0,65.1967,23.000008,120.21943,47.627,NaN,3.001,48.0,184.546,0 / 0,8209,2021-03-23 20:33:34:903
-0.06946,0.95288,9.94245,-0.16536,0.97912,9.75625,-0.0212,-0.00619,0.01881,-1.852,15.048,-7.337,7.723,-5.73,0.971,5.0,65.1967,23.000008,120.21943,47.627,NaN,3.001,48.0,184.546,0 / 0,8309,2021-03-23 20:33:35:003
-0.16766,0.6056,9.97119,-0.13606,0.92384,9.76209,-0.01759,-0.00861,0.01778,-4.203,14.618,-8.002,14.712,-5.568,0.878,5.0,61.1735,23.000008,120.21943,47.627,NaN,3.001,48.0,184.546,0 / 0,8409,2021-03-23 20:33:35:103
-0.12215,0.61278,9.84186,-0.13218,0.84382,9.76939,-0.00684,-0.01331,0.01402,-4.424,15.262,-8.45,14.727,-4.936,0.775,5.0,61.1735,23.000008,120.21943,47.627,NaN,3.001,48.0,184.546,0 / 0,8508,2021-03-23 20:33:35:202
0.00718,0.64871,9.7245,-0.122,0.81884,9.77164,0.00323,-0.00893,0.01832,-3.935,12.49,-6.695,18.064,-4.936,0.775,5.0,61.1735,23.000008,120.21943,47.627,NaN,3.001,48.0,184.546,0 / 0,8608,2021-03-23 20:33:35:302
0.04072,0.91456,9.79396,-0.08694,0.78193,9.77504,-2.4E-4,-0.01112,0.0156,-4.422,13.102,-5.993,16.789,-4.573,0.51,5.0,65.3342,23.000008,120.21943,47.627,NaN,3.001,48.0,184.546,0 / 0,8709,2021-03-23 20:33:35:403
0.0479,0.74451,9.48499,-0.05199,0.7697,9.77626,-0.00118,-0.01357,0.00558,-3.787,14.101,-4.357,15.753,-4.536,0.368,5.0,65.3342,23.000008,120.21943,47.627,NaN,3.001,48.0,184.546,0 / 0,8809,2021-03-23 20:33:35:503
-0.02395,0.69182,9.63109,-0.04132,0.76947,9.77633,-0.00557,-0.00303,0.00773,-5.177,13.931,-3.421,19.455,-4.5,0.242,5.0,65.3342,23.000008,120.21943,47.627,NaN,3.001,48.0,184.546,0 / 0,8909,2021-03-23 20:33:35:603
0.03593,0.68942,9.81551,-0.01801,0.74268,9.77847,-0.00342,0.00947,0.00864,-5.101,13.787,-1.832,19.529,-4.41,0.148,5.0,65.3342,23.000008,120.21943,47.627,NaN,3.001,48.0,184.546,0 / 0,9011,2021-03-23 20:33:35:705
-0.25867,0.61757,9.84665,-0.02055,0.73232,9.77925,-0.00698,0.015,0.00697,-5.965,12.939,-3.165,24.488,-4.283,0.12,5.0,61.9104,23.000008,120.21943,47.627,NaN,3.001,48.0,184.546,0 / 0,9109,2021-03-23 20:33:35:803
-0.2419,0.71577,9.7724,-0.0425,0.71248,9.78064,-0.01139,0.00755,0.00878,-6.23,11.8,-1.108,26.496,-4.283,0.12,5.0,61.9104,23.000008,120.21943,47.627,NaN,3.001,48.0,184.546,0 / 0,9209,2021-03-23 20:33:35:903
-0.08622,0.63194,9.78677,-0.08299,0.68514,9.78234,-0.0122,0.00181,0.01146,-5.722,13.051,-0.462,24.834,-4.006,0.486,5.0,61.9104,23.000008,120.21943,47.627,NaN,3.001,48.0,184.546,0 / 0,9308,2021-03-23 20:33:36:002
-0.08143,0.43315,9.72689,-0.0825,0.65388,9.78448,-0.01873,-0.00428,0.00884,-5.757,13.705,-2.649,23.038,-3.957,0.501,5.0,65.2199,23.000008,120.21943,47.627,NaN,3.001,48.0,184.546,0 / 0,9409,2021-03-23 20:33:36:103
0.0,0.52895,9.5784,-0.0747,0.6266,9.78633,-0.01104,-0.00493,0.00732,-8.49,13.105,-1.219,31.565,-3.663,0.437,5.0,65.2199,23.000008,120.21943,47.627,NaN,3.001,48.0,184.546,0 / 0,9509,2021-03-23 20:33:36:203
0.01677,0.62476,9.88018,-0.06028,0.60647,9.78769,0.00419,-3.0E-5,0.00772,-8.084,12.751,-0.491,31.664,-3.584,0.428,5.0,65.2199,23.000008,120.21943,47.627,NaN,3.001,48.0,184.546,0 / 0,9609,2021-03-23 20:33:36:303
0.01197,0.85229,9.9209,-0.04578,0.60868,9.78764,0.01009,-0.00448,0.00371,-9.464,13.358,-1.61,34.525,-3.559,0.268,5.0,63.9766,23.000008,120.21943,47.627,NaN,3.001,48.0,184.546,0 / 0,9709,2021-03-23 20:33:36:403
0.1461,0.86906,9.77719,-0.03655,0.63218,9.78618,0.01547,-0.00715,-0.00311,-10.299,12.963,-0.236,37.628,-3.559,0.268,5.0,63.9766,23.000008,120.21943,47.627,NaN,3.001,48.0,184.546,0 / 0,9809,2021-03-23 20:33:36:503
-0.01677,0.92654,9.75803,-0.00791,0.703,9.78142,0.01259,-0.00625,-0.00755,-10.319,14.002,-0.96,35.472,-4.111,0.046,5.0,63.9766,23.000008,120.21943,47.627,NaN,3.001,48.0,184.546,0 / 0,9908,2021-03-23 20:33:36:602
-0.06467,0.8978,9.6263,-0.01508,0.76904,9.77644,-7.1E-4,-0.01605,-0.01116,-10.597,15.514,-2.21,34.335,-4.324,0.019,5.0,64.4568,23.000008,120.21943,47.627,NaN,3.001,48.0,184.546,0 / 0,10008,2021-03-23 20:33:36:702
-0.07185,0.95528,9.91132,-0.02182,0.78778,9.77493,-0.00562,-0.01103,-0.00436,-10.963,15.211,-3.461,35.926,-4.608,0.128,5.0,64.4568,23.000008,120.21943,47.627,NaN,3.001,48.0,184.546,0 / 0,10109,2021-03-23 20:33:36:803
-0.01437,0.87864,9.73408,-0.02791,0.80394,9.7736,-0.0056,-0.01727,-0.00357,-11.936,16.02,-3.224,36.571,-4.667,0.182,5.0,64.4568,23.000008,120.21943,47.627,NaN,3.001,48.0,184.546,0 / 0,10209,2021-03-23 20:33:36:903
0.10778,0.95288,9.84186,-6.9E-4,0.80758,9.77334,0.00551,-0.0097,-0.00781,-12.463,16.45,-5.263,36.265,-4.724,0.004,5.0,64.4568,23.000008,120.21943,47.627,NaN,3.001,48.0,184.546,0 / 0,10310,2021-03-23 20:33:37:004
0.22993,1.04869,9.80833,0.01496,0.82052,9.77225,0.0047,0.00975,-0.00363,-13.013,17.539,-6.637,35.075,-4.724,0.004,5.0,64.7134,23.000008,120.21943,47.627,NaN,3.001,48.0,184.546,0 / 0,10410,2021-03-23 20:33:37:104
-0.1485,0.95049,9.3365,0.04852,0.84541,9.77002,-0.0019,0.02057,-0.0055,-13.458,17.209,-7.451,36.462,-4.945,-0.285,5.0,64.7134,23.000008,120.21943,47.627,NaN,3.001,48.0,184.546,0 / 0,10508,2021-03-23 20:33:37:202
-0.31376,0.91935,9.46823,4.3E-4,0.87031,9.76796,-0.01001,0.01265,-0.00929,-12.913,18.011,-9.307,34.704,-5.032,-0.209,5.0,64.7134,23.000008,120.21943,47.627,NaN,3.001,48.0,184.546,0 / 0,10608,2021-03-23 20:33:37:302
-0.21077,0.98402,9.96161,-0.03862,0.87685,9.7673,-0.01074,0.00461,-0.00692,-13.695,17.876,-10.447,36.727,-5.13,0.227,5.0,62.6842,23.000008,120.21943,47.627,NaN,3.001,48.0,184.546,0 / 0,10708,2021-03-23 20:33:37:402
0.02156,0.87145,9.80354,-0.07881,0.87961,9.7668,-0.00528,-0.00243,-0.00451,-13.842,18.245,-10.038,36.789,-5.133,0.397,5.0,62.6842,23.000008,120.21943,47.627,NaN,3.001,48.0,184.546,0 / 0,10809,2021-03-23 20:33:37:503
0.10538,0.70858,9.85383,-0.04533,0.87744,9.76721,-0.00668,0.0043,-0.00611,-13.88,18.283,-11.817,36.499,-5.133,0.266,5.0,62.6842,23.000008,120.21943,47.627,NaN,3.001,48.0,184.546,0 / 0,10908,2021-03-23 20:33:37:602
-0.15568,0.72056,9.94006,-0.0318,0.86884,9.76803,-0.00507,0.01568,-0.00715,-13.731,18.344,-11.616,36.499,-5.133,0.266,5.0,65.0467,23.000008,120.21943,47.627,NaN,3.001,48.0,184.546,0 / 0,11008,2021-03-23 20:33:37:702
-0.3401,0.88343,9.82988,-0.07247,0.83662,9.77063,5.3E-4,0.01079,-0.00431,-14.149,18.3,-12.657,36.522,-4.894,0.425,5.0,65.0467,23.000008,120.21943,47.627,NaN,3.001,48.0,184.546,0 / 0,11108,2021-03-23 20:33:37:802
-0.22035,0.78044,9.68378,-0.13245,0.82516,9.77098,-1.1E-4,-0.01583,-0.00541,-13.435,17.8,-11.989,34.737,-4.839,0.624,5.0,65.0467,23.000008,120.21943,47.627,NaN,3.001,48.0,184.546,0 / 0,11209,2021-03-23 20:33:37:903
-0.02874,0.75649,9.65983,-0.13967,0.8222,9.77113,9.0E-5,-0.02363,-0.00305,-11.83,19.201,-12.641,31.34,-4.809,0.819,5.0,61.5376,23.000008,120.21943,47.627,NaN,3.001,48.0,184.546,0 / 0,11309,2021-03-23 20:33:38:003
0.0503,0.75649,9.64067,-0.1037,0.7954,9.77379,0.00452,-0.02167,-0.00135,-11.217,19.143,-12.622,29.2,-4.69,0.756,5.0,61.5376,23.000008,120.21943,47.627,NaN,3.001,48.0,184.546,0 / 0,11409,2021-03-23 20:33:38:103
0.01197,0.91456,9.63349,-0.04524,0.79594,9.77419,0.00334,-0.01382,-0.00495,-9.707,19.506,-11.661,25.689,-4.655,0.265,5.0,61.5376,23.000008,120.21943,47.627,NaN,3.001,48.0,184.546,0 / 0,11509,2021-03-23 20:33:38:203
0.13891,0.85229,9.51373,-0.02522,0.80401,9.7736,-0.00519,-0.00229,-0.00444,-8.82,18.513,-11.749,24.459,-4.655,0.265,5.0,61.5376,23.000008,120.21943,47.627,NaN,3.001,48.0,184.546,0 / 0,11609,2021-03-23 20:33:38:303
0.01197,0.76128,9.77719,0.00164,0.80712,9.77338,-0.01276,0.00991,-0.00351,-10.725,19.167,-13.932,28.7,-4.721,-0.01,5.0,65.9602,23.000008,120.21943,47.627,NaN,3.001,48.0,184.546,0 / 0,11709,2021-03-23 20:33:38:403
-0.11017,0.85229,9.73168,-0.01408,0.79905,9.77403,-0.0141,0.0142,-4.5E-4,-10.864,19.774,-14.819,27.491,-4.715,0.05,5.0,65.9602,23.000008,120.21943,47.627,NaN,3.001,48.0,184.546,0 / 0,11809,2021-03-23 20:33:38:503
-0.2946,0.73972,10.0167,-0.03321,0.7966,9.77419,-0.00824,0.00851,-6.8E-4,-9.99,19.227,-15.261,26.507,-4.659,0.195,5.0,65.9602,23.000008,120.21943,47.627,NaN,3.001,48.0,184.546,0 / 0,11909,2021-03-23 20:33:38:603
-0.20358,0.70858,9.97119,-0.08746,0.76879,9.77608,0.00941,6.0E-5,0.00389,-11.564,17.404,-15.728,33.596,-4.575,0.362,5.0,61.1827,23.000008,120.21943,47.627,NaN,3.001,48.0,184.546,0 / 0,12009,2021-03-23 20:33:38:703
0.00958,0.74451,9.48739,-0.10882,0.77657,9.77525,0.01496,-0.00163,0.0085,-10.912,18.759,-14.138,29.103,-4.542,0.638,5.0,61.1827,23.000008,120.21943,47.627,NaN,3.001,48.0,184.546,0 / 0,12110,2021-03-23 20:33:38:804
0.00958,0.77086,9.73887,-0.09701,0.78419,9.77477,0.01107,0.00154,0.0059,-10.058,18.277,-14.339,28.07,-4.542,0.638,5.0,61.1827,23.000008,120.21943,47.627,NaN,3.001,48.0,184.546,0 / 0,12211,2021-03-23 20:33:38:905
-0.26585,0.87145,9.80833,-0.07196,0.79702,9.77394,0.00655,0.00705,0.00732,-11.364,16.328,-13.341,33.136,-4.662,0.422,5.0,65.8722,23.000008,120.21943,47.627,NaN,3.001,48.0,184.546,0 / 0,12308,2021-03-23 20:33:39:002
-0.34968,0.73733,9.70773,-0.10096,0.81121,9.77252,-0.00681,-0.0075,0.00792,-9.581,17.844,-15.783,27.76,-4.735,0.48,5.0,65.8722,23.000008,120.21943,47.627,NaN,3.001,48.0,184.546,0 / 0,12409,2021-03-23 20:33:39:103
0.06946,0.72535,9.72929,-0.12058,0.79973,9.77324,-0.00732,-0.0179,0.00603,-10.816,16.815,-15.068,31.634,-4.678,0.707,5.0,65.8722,23.000008,120.21943,47.627,NaN,3.001,48.0,184.546,0 / 0,12509,2021-03-23 20:33:39:203
0.00479,0.77325,9.8706,-0.10129,0.7837,9.77476,-0.0028,-0.01023,0.00889,-9.865,16.804,-14.302,29.411,-4.609,0.742,5.0,60.6136,23.000008,120.21943,47.627,NaN,3.001,48.0,184.546,0 / 0,12608,2021-03-23 20:33:39:302
0.16766,0.75649,9.81312,-0.04574,0.77728,9.77569,-0.00676,-0.00798,0.00596,-11.079,17.415,-15.015,31.406,-4.546,0.268,5.0,60.6136,23.000008,120.21943,47.627,NaN,3.001,48.0,184.546,0 / 0,12709,2021-03-23 20:33:39:403
0.01916,0.67745,9.76761,-0.02552,0.76762,9.77653,-0.00941,0.01343,0.00499,-12.458,18.86,-17.68,30.687,-4.546,0.268,5.0,60.6136,23.000008,120.21943,47.627,NaN,3.001,48.0,184.546,0 / 0,12809,2021-03-23 20:33:39:503
-0.06946,0.66547,9.63349,-0.0436,0.74268,9.77839,-0.00407,0.01013,0.00779,-12.899,18.41,-17.573,34.117,-4.343,0.255,5.0,60.6136,23.000008,120.21943,47.627,NaN,3.001,48.0,184.546,0 / 0,12909,2021-03-23 20:33:39:603
-0.194,0.75409,9.87779,-0.0646,0.73084,9.77917,0.00711,0.00826,0.00492,-14.142,16.364,-17.256,39.3,-4.3,0.329,5.0,65.5389,23.000008,120.21943,47.627,NaN,3.001,48.0,184.546,0 / 0,13009,2021-03-23 20:33:39:703
-0.10538,0.73733,10.02388,-0.0748,0.72914,9.77922,0.01122,0.00725,0.00553,-12.262,17.974,-18.167,32.189,-4.264,0.438,5.0,65.5389,23.000008,120.21943,47.627,NaN,3.001,48.0,184.546,0 / 0,13109,2021-03-23 20:33:39:803
-0.21795,0.75888,9.75563,-0.08231,0.7242,9.77953,0.02175,0.00428,0.00436,-14.247,17.29,-18.703,37.626,-4.25,0.445,5.0,65.5389,23.000008,120.21943,47.627,NaN,3.001,48.0,184.546,0 / 0,13209,2021-03-23 20:33:39:903
-0.26825,0.83792,9.66941,-0.10565,0.7464,9.77763,0.0156,0.00151,0.0033,-12.448,18.053,-19.261,32.195,-4.365,0.619,5.0,61.8339,23.000008,120.21943,47.627,NaN,3.001,48.0,184.546,0 / 0,13308,2021-03-23 20:33:40:002
-0.04551,0.66308,9.59756,-0.12073,0.75561,9.77675,-0.00419,-0.00791,0.00926,-11.698,19.024,-19.535,30.842,-4.365,0.619,5.0,61.8339,23.000008,120.21943,47.627,NaN,3.001,48.0,184.546,0 / 0,13410,2021-03-23 20:33:40:104
-0.04551,0.63434,9.79396,-0.10621,0.74609,9.77765,-0.00315,-0.00838,0.0082,-13.694,17.475,-21.786,37.415,-4.363,0.622,5.0,61.8339,23.000008,120.21943,47.627,NaN,3.001,48.0,184.546,0 / 0,13510,2021-03-23 20:33:40:204
-0.09101,0.71817,9.82988,-0.08092,0.7332,9.77887,0.00398,6.4E-4,0.00323,-12.945,15.646,-22.302,36.891,-4.309,0.545,5.0,64.9206,23.000008,120.21943,47.627,NaN,3.001,48.0,184.546,0 / 0,13609,2021-03-23 20:33:40:303
-0.08622,0.69661,9.50655,-0.07616,0.73813,9.77854,0.00939,4.9E-4,0.00378,-12.336,16.941,-21.768,33.199,-4.287,0.43,5.0,64.9206,23.000008,120.21943,47.627,NaN,3.001,48.0,184.546,0 / 0,13709,2021-03-23 20:33:40:403
-0.01437,0.84271,9.58079,-0.07822,0.74883,9.7777,0.00517,-0.00732,0.0012,-12.675,18.485,-23.52,33.733,-4.317,0.446,5.0,64.9206,23.000008,120.21943,47.627,NaN,3.001,48.0,184.546,0 / 0,13809,2021-03-23 20:33:40:503
0.17005,0.88103,9.81072,-0.04187,0.77145,9.77617,9.7E-4,0.00196,-0.00117,-12.474,16.938,-25.265,32.629,-4.512,0.245,5.0,63.859,23.000008,120.21943,47.627,NaN,3.001,48.0,184.546,0 / 0,13908,2021-03-23 20:33:40:602
-0.06946,0.85468,9.8227,-0.01814,0.7825,9.77537,5.0E-4,0.01009,-0.00747,-12.652,16.966,-24.753,34.727,-4.512,0.245,5.0,63.859,23.000008,120.21943,47.627,NaN,3.001,48.0,184.546,0 / 0,14009,2021-03-23 20:33:40:703
-0.23472,0.71577,9.85144,-0.0201,0.7882,9.7749,0.00189,0.01264,-0.00858,-13.359,16.275,-24.965,36.013,-4.61,0.118,5.0,63.859,23.000008,120.21943,47.627,NaN,3.001,48.0,184.546,0 / 0,14108,2021-03-23 20:33:40:802
-0.30178,0.75409,9.69336,-0.07756,0.78539,9.77484,0.00836,-0.00336,-0.00444,-13.849,14.141,-24.762,41.529,-4.601,0.297,5.0,63.859,23.000008,120.21943,47.627,NaN,3.001,48.0,184.546,0 / 0,14208,2021-03-23 20:33:40:902
-0.1461,0.83552,9.76522,-0.09293,0.79816,9.77367,0.00437,-0.01032,-0.00494,-12.092,16.558,-25.862,32.735,-4.668,0.545,5.0,63.3113,23.000008,120.21943,47.627,NaN,3.001,48.0,184.546,0 / 0,14309,2021-03-23 20:33:41:003
0.0503,0.87624,9.79875,-0.09532,0.80787,9.77285,-0.00555,-0.02128,-0.00436,-12.655,14.695,-24.869,37.937,-4.713,0.566,5.0,63.3113,23.000008,120.21943,47.627,NaN,3.001,48.0,184.546,0 / 0,14409,2021-03-23 20:33:41:103
0.04551,0.76367,9.7748,-0.05314,0.81578,9.77252,-0.01232,-0.01077,-0.00317,-10.275,13.152,-27.315,33.731,-4.772,0.312,5.0,63.3113,23.000008,120.21943,47.627,NaN,3.001,48.0,184.546,0 / 0,14509,2021-03-23 20:33:41:203
-0.15808,0.71098,9.6263,-0.03463,0.80313,9.77365,-0.00664,-0.00132,-0.00719,-10.993,11.586,-23.871,38.586,-4.772,0.312,5.0,60.6432,23.000008,120.21943,47.627,NaN,3.001,48.0,184.546,0 / 0,14609,2021-03-23 20:33:41:303
-0.18203,0.77565,9.71252,-0.03215,0.77779,9.7757,0.00205,-0.00197,-0.00874,-9.361,10.92,-25.352,35.052,-4.549,0.188,5.0,60.6432,23.000008,120.21943,47.627,NaN,3.001,48.0,184.546,0 / 0,14709,2021-03-23 20:33:41:403
-0.16526,0.91456,9.99514,-0.05568,0.78855,9.77474,0.00318,-0.02042,-0.00232,-9.406,10.385,-25.171,37.293,-4.577,0.249,5.0,60.6432,23.000008,120.21943,47.627,NaN,3.001,48.0,184.546,0 / 0,14809,2021-03-23 20:33:41:503
0.18203,0.78762,9.86581,-0.07189,0.79105,9.77443,0.0015,-0.02776,-8.6E-4,-7.622,9.639,-23.623,34.496,-4.627,0.421,5.0,60.5477,23.000008,120.21943,47.627,NaN,3.001,48.0,184.546,0 / 0,14909,2021-03-23 20:33:41:603
0.28501,1.00078,9.81791,-0.02575,0.78814,9.7749,-0.00105,-2.8E-4,-0.00193,-7.992,9.426,-23.952,36.77,-4.625,0.35,5.0,60.5477,23.000008,120.21943,47.627,NaN,3.001,48.0,184.546,0 / 0,15010,2021-03-23 20:33:41:704
-0.0024,0.83313,9.73408,0.05271,0.80923,9.77306,-0.00534,0.01401,-0.00607,-8.433,8.259,-24.038,38.325,-4.733,-0.309,5.0,60.5477,23.000008,120.21943,47.627,NaN,3.001,48.0,184.546,0 / 0,15109,2021-03-23 20:33:41:803
-0.16526,0.70858,9.74126,0.05143,0.80824,9.77315,-0.00509,0.02494,-0.00805,-8.446,8.721,-20.846,36.378,-4.733,-0.309,5.0,60.3453,23.000008,120.21943,47.627,NaN,3.001,48.0,184.546,0 / 0,15209,2021-03-23 20:33:41:903
-0.30657,0.69661,9.87779,-0.01613,0.80278,9.77372,-0.00113,0.02244,-0.00367,-8.857,7.81,-21.745,42.757,-4.696,0.095,5.0,60.3453,23.000008,120.21943,47.627,NaN,3.001,48.0,184.546,0 / 0,15309,2021-03-23 20:33:42:003
-0.05748,0.76128,10.16519,-0.09239,0.79464,9.77397,0.00426,-0.00914,-0.00631,-8.314,8.385,-22.366,39.86,-4.667,0.387,5.0,60.3453,23.000008,120.21943,47.627,NaN,3.001,48.0,184.546,0 / 0,15409,2021-03-23 20:33:42:103
0.02635,0.8475,9.58319,-0.09712,0.78653,9.77458,0.00343,-0.01258,-0.00677,-7.445,9.273,-21.745,33.924,-4.595,0.562,5.0,60.0086,23.000008,120.21943,47.627,NaN,3.001,48.0,184.546,0 / 0,15509,2021-03-23 20:33:42:203
-0.10299,0.78283,9.47541,-0.07225,0.78815,9.77466,0.0039,-0.01656,-0.00621,-8.095,8.647,-20.701,37.625,-4.6,0.569,5.0,60.0086,23.000008,120.21943,47.627,NaN,3.001,48.0,184.546,0 / 0,15609,2021-03-23 20:33:42:303
0.02635,0.7517,9.71731,-0.0458,0.79731,9.77408,0.0029,-0.0141,-0.00739,-6.838,9.284,-21.116,33.622,-4.663,0.269,5.0,60.0086,23.000008,120.21943,47.627,NaN,3.001,48.0,184.546,0 / 0,15709,2021-03-23 20:33:42:403
0.00718,0.92175,9.7724,-0.03592,0.79708,9.77414,0.00697,-0.00761,-0.0034,-7.14,8.014,-22.791,35.839,-4.663,0.269,5.0,60.0086,23.000008,120.21943,47.627,NaN,3.001,48.0,184.546,0 / 0,15808,2021-03-23 20:33:42:502
-0.09101,0.90977,9.89216,-0.01392,0.816,9.77263,-0.0013,-0.00109,-0.00322,-6.896,8.709,-21.422,33.267,-4.773,0.082,5.0,58.7927,23.000008,120.21943,47.627,NaN,3.001,48.0,184.546,0 / 0,15908,2021-03-23 20:33:42:602
0.00239,0.77804,9.86581,-0.01544,0.82409,9.77195,-0.00996,-0.00512,-0.00644,-5.771,10.537,-24.402,24.859,-4.848,0.043,5.0,58.7927,23.000008,120.21943,47.627,NaN,3.001,48.0,184.546,0 / 0,16008,2021-03-23 20:33:42:702
-0.16526,0.76607,9.71252,-0.01546,0.81102,9.77304,-0.00424,-0.00373,-0.00686,-5.278,9.61,-24.835,22.725,-4.744,0.091,5.0,58.7927,23.000008,120.21943,47.627,NaN,3.001,48.0,184.546,0 / 0,16109,2021-03-23 20:33:42:803
0.06946,0.78044,9.73408,-0.03457,0.80576,9.77343,-0.00167,-0.0126,-0.00772,-6.62,8.029,-24.658,35.168,-4.673,0.12,5.0,59.5402,23.000008,120.21943,47.627,NaN,3.001,48.0,184.546,0 / 0,16209,2021-03-23 20:33:42:903
0.18682,0.89301,9.78198,1.7E-4,0.80217,9.77379,-0.00528,-0.0014,-0.00436,-6.886,8.575,-24.469,32.628,-4.692,-0.001,5.0,59.5402,23.000008,120.21943,47.627,NaN,3.001,48.0,184.546,0 / 0,16308,2021-03-23 20:33:43:002
0.02156,0.85229,9.66223,0.03725,0.80636,9.77337,-0.00323,0.01601,-0.00394,-5.767,9.297,-25.336,28.576,-4.692,-0.001,5.0,59.5402,23.000008,120.21943,47.627,NaN,3.001,48.0,184.546,0 / 0,16409,2021-03-23 20:33:43:103
-0.26825,0.67984,9.92569,0.02255,0.80376,9.77363,-0.00368,0.01706,-0.00903,-5.787,8.797,-25.23,28.335,-4.701,-0.132,5.0,58.6445,23.000008,120.21943,47.627,NaN,3.001,48.0,184.546,0 / 0,16509,2021-03-23 20:33:43:203
-0.28501,0.6056,9.91132,-0.04626,0.80019,9.77384,0.00167,-0.00654,-0.00651,-6.359,8.699,-24.316,28.899,-4.684,0.079,5.0,58.6445,23.000008,120.21943,47.627,NaN,3.001,48.0,184.546,0 / 0,16609,2021-03-23 20:33:43:303
-0.13173,0.80678,9.88257,-0.06814,0.78657,9.77482,0.00475,-0.02369,-0.00535,-6.491,6.61,-22.527,34.935,-4.601,0.399,5.0,58.6445,23.000008,120.21943,47.627,NaN,3.001,48.0,184.546,0 / 0,16708,2021-03-23 20:33:43:402
0.194,0.81636,9.80114,-0.04688,0.79431,9.77432,-0.0068,-0.01705,-0.00623,-5.379,6.124,-23.213,33.439,-4.59,0.406,5.0,58.6445,23.000008,120.21943,47.627,NaN,3.001,48.0,184.546,0 / 0,16809,2021-03-23 20:33:43:503
0.13173,0.70379,9.63109,0.00827,0.79299,9.77453,-0.00571,-0.01222,-0.00521,-7.082,5.33,-21.733,45.91,-4.638,-0.048,5.0,59.0351,23.000008,120.21943,47.627,NaN,3.001,48.0,184.546,0 / 0,16908,2021-03-23 20:33:43:602
0.05269,0.68703,9.73648,0.04086,0.7833,9.77523,-0.00265,0.00753,-0.01055,-4.453,4.295,-20.304,35.402,-4.638,-0.048,5.0,59.0351,23.000008,120.21943,47.627,NaN,3.001,48.0,184.546,0 / 0,17009,2021-03-23 20:33:43:703
-0.06227,0.75409,9.95203,0.03924,0.77796,9.77567,-0.00327,0.00542,-0.01064,-5.882,5.85,-20.169,38.027,-4.55,-0.23,5.0,59.0351,23.000008,120.21943,47.627,NaN,3.001,48.0,184.546,0 / 0,17109,2021-03-23 20:33:43:803
-0.01916,0.77086,9.94006,0.02487,0.76284,9.7769,0.00868,-0.00267,-0.01573,-7.229,4.326,-18.023,52.085,-4.519,-0.182,5.0,58.7659,23.000008,120.21943,47.627,NaN,3.001,48.0,184.546,0 / 0,17208,2021-03-23 20:33:43:902
0.16286,0.74451,9.63349,0.02819,0.76405,9.7768,0.01147,6.6E-4,-0.01539,-7.245,2.97,-15.931,58.635,-4.467,-0.166,5.0,58.7659,23.000008,120.21943,47.627,NaN,3.001,48.0,184.546,0 / 0,17309,2021-03-23 20:33:44:003
-0.00719,0.79481,9.59517,0.03464,0.77584,9.77585,0.00119,0.01456,-0.01171,-6.776,5.534,-16.035,43.885,-4.469,-0.165,5.0,58.7659,23.000008,120.21943,47.627,NaN,3.001,48.0,184.546,0 / 0,17409,2021-03-23 20:33:44:103
-0.17245,0.81397,9.86581,0.0197,0.79396,9.77444,4.1E-4,0.01563,-0.00976,-6.557,4.613,-15.571,47.971,-4.644,-0.115,5.0,59.168,23.000008,120.21943,47.627,NaN,3.001,48.0,184.546,0 / 0,17508,2021-03-23 20:33:44:202
-0.24669,0.73972,10.11011,-0.03006,0.78593,9.77506,-0.00186,0.01033,-0.00801,-6.532,4.94,-13.92,48.731,-4.644,-0.115,5.0,59.168,23.000008,120.21943,47.627,NaN,3.001,48.0,184.546,0 / 0,17609,2021-03-23 20:33:44:303
-0.32334,0.8475,9.54247,-0.05758,0.77207,9.77604,0.00744,0.00503,-0.00366,-7.059,4.936,-13.934,49.339,-4.516,0.337,5.0,59.168,23.000008,120.21943,47.627,NaN,3.001,48.0,184.546,0 / 0,17710,2021-03-23 20:33:44:404
-0.16047,0.87864,9.38679,-0.10007,0.78964,9.7743,0.00789,-0.01322,-9.7E-4,-8.047,4.906,-12.599,53.439,-4.55,0.462,5.0,59.0849,23.000008,120.21943,47.627,NaN,3.001,48.0,184.546,0 / 0,17809,2021-03-23 20:33:44:503
0.0,0.76128,9.93287,-0.0965,0.81501,9.77225,1.1E-4,-0.01996,-0.00187,-8.533,5.576,-13.099,52.387,-4.715,0.61,5.0,59.0849,23.000008,120.21943,47.627,NaN,3.001,48.0,184.546,0 / 0,17909,2021-03-23 20:33:44:603
0.13652,0.82834,9.53289,-0.07743,0.81109,9.77274,-7.8E-4,-0.01572,2.3E-4,-7.808,7.002,-15.112,44.762,-4.767,0.566,5.0,59.0849,23.000008,120.21943,47.627,NaN,3.001,48.0,184.546,0 / 0,18009,2021-03-23 20:33:44:703
0.13173,0.8954,9.73648,-0.03321,0.82148,9.77213,-4.6E-4,-0.00505,-1.1E-4,-7.998,8.362,-14.473,41.356,-4.805,0.195,5.0,59.0849,23.000008,120.21943,47.627,NaN,3.001,48.0,184.546,0 / 0,18108,2021-03-23 20:33:44:802
-0.06467,0.78523,9.76522,-0.00881,0.82257,9.77209,-0.00599,0.01062,1.8E-4,-8.366,6.415,-15.82,47.675,-4.798,0.118,5.0,58.8311,23.000008,120.21943,47.627,NaN,3.001,48.0,184.546,0 / 0,18209,2021-03-23 20:33:44:903
-0.09101,0.79481,9.67899,-0.02125,0.82346,9.77199,-0.00429,0.00709,-1.1E-4,-9.587,8.649,-14.58,44.453,-4.817,0.125,5.0,58.8311,23.000008,120.21943,47.627,NaN,3.001,48.0,184.546,0 / 0,18310,2021-03-23 20:33:45:004
-0.22514,0.70858,9.97838,-0.05058,0.81218,9.77283,-0.00527,1.9E-4,0.00302,-9.639,8.873,-15.409,44.559,-4.759,0.209,5.0,58.8311,23.000008,120.21943,47.627,NaN,3.001,48.0,184.546,0 / 0,18409,2021-03-23 20:33:45:103
-0.0024,0.7517,9.87299,-0.07889,0.79187,9.77431,-0.00191,-0.01343,0.00282,-10.379,9.445,-15.362,44.791,-4.676,0.431,5.0,59.61,23.000008,120.21943,47.627,NaN,3.001,48.0,184.546,0 / 0,18509,2021-03-23 20:33:45:203
0.15328,0.76128,9.90892,-0.06537,0.78686,9.77481,-0.00225,-0.00749,0.00318,-11.401,10.848,-16.68,42.09,-4.632,0.462,5.0,59.61,23.000008,120.21943,47.627,NaN,3.001,48.0,184.546,0 / 0,18608,2021-03-23 20:33:45:302
0.03353,0.67505,9.48978,-0.01716,0.77354,9.77608,9.7E-4,2.0E-4,0.00388,-11.978,11.646,-17.029,42.125,-4.524,0.101,5.0,59.61,23.000008,120.21943,47.627,NaN,3.001,48.0,184.546,0 / 0,18709,2021-03-23 20:33:45:403
-0.15568,0.82594,9.69815,-0.01018,0.78923,9.77484,-0.00186,0.00747,8.6E-4,-12.153,11.976,-15.739,42.291,-4.524,0.101,5.0,60.2092,23.000008,120.21943,47.627,NaN,3.001,48.0,184.546,0 / 0,18808,2021-03-23 20:33:45:502
-0.04551,0.90977,9.76761,-0.03459,0.79137,9.77461,-0.00321,0.00122,7.4E-4,-12.146,15.025,-18.862,36.211,-4.629,0.203,5.0,60.2092,23.000008,120.21943,47.627,NaN,3.001,48.0,184.546,0 / 0,18908,2021-03-23 20:33:45:602
0.08143,0.78523,9.87539,-0.05088,0.80004,9.77383,-0.01385,0.00347,0.00179,-13.295,16.278,-21.281,36.599,-4.672,0.298,5.0,60.2092,23.000008,120.21943,47.627,NaN,3.001,48.0,184.546,0 / 0,19009,2021-03-23 20:33:45:703
-0.05269,0.63913,9.8203,-0.03617,0.77805,9.77567,-0.00836,0.00137,8.3E-4,-14.018,17.754,-24.026,35.356,-4.638,0.246,5.0,60.5618,23.000008,120.21943,47.627,NaN,3.001,48.0,184.546,0 / 0,19109,2021-03-23 20:33:45:803
-0.2946,0.67745,9.87779,-0.03061,0.76601,9.77664,0.00828,0.00632,-0.00297,-14.657,19.368,-22.168,36.101,-4.551,0.212,5.0,60.5618,23.000008,120.21943,47.627,NaN,3.001,48.0,184.546,0 / 0,19210,2021-03-23 20:33:45:904
-0.03593,0.87385,9.83946,-0.07184,0.75957,9.77693,0.0093,-0.00376,0.00112,-15.408,20.043,-26.322,34.691,-4.442,0.421,5.0,60.5618,23.000008,120.21943,47.627,NaN,3.001,48.0,184.546,0 / 0,19309,2021-03-23 20:33:46:003
-0.14131,0.77325,9.70773,-0.08096,0.76787,9.77621,0.00987,1.5E-4,0.00489,-14.778,20.398,-27.507,34.529,-4.442,0.421,5.0,60.5618,23.000008,120.21943,47.627,NaN,3.001,48.0,184.546,0 / 0,19408,2021-03-23 20:33:46:102
0.06227,0.86906,9.64786,-0.07919,0.76981,9.77607,0.0131,-0.00502,0.00446,-15.649,20.706,-28.696,34.981,-4.502,0.464,5.0,60.0394,23.000008,120.21943,47.627,NaN,3.001,48.0,184.546,0 / 0,19509,2021-03-23 20:33:46:203
-0.0503,0.80918,9.64307,-0.06154,0.79158,9.77446,0.00507,0.0095,0.00516,-15.76,21.23,-31.63,34.642,-4.524,0.364,5.0,60.0394,23.000008,120.21943,47.627,NaN,3.001,48.0,184.546,0 / 0,19609,2021-03-23 20:33:46:303
-0.24669,0.86906,9.73408,-0.06905,0.81123,9.7728,6.7E-4,0.01476,0.0047,-15.024,21.994,-32.731,31.73,-4.674,0.375,5.0,60.0394,23.000008,120.21943,47.627,NaN,3.001,48.0,184.546,0 / 0,19708,2021-03-23 20:33:46:402
-0.17005,0.71817,10.01191,-0.0929,0.81461,9.77232,-0.00232,0.01343,0.00362,-14.321,20.332,-32.927,32.141,-4.745,0.405,5.0,59.7712,23.000008,120.21943,47.627,NaN,3.001,48.0,184.546,0 / 0,19809,2021-03-23 20:33:46:503
-0.18921,0.76367,9.83228,-0.13311,0.81477,9.77184,-0.00815,0.00113,0.00633,-14.65,18.609,-34.197,35.418,-4.766,0.78,5.0,59.7712,23.000008,120.21943,47.627,NaN,3.001,48.0,184.546,0 / 0,19909,2021-03-23 20:33:46:603
-0.14131,0.68463,9.81791,-0.15004,0.80674,9.77226,-0.00979,-0.00762,0.013,-14.501,19.627,-35.24,34.253,-4.728,0.861,5.0,59.7712,23.000008,120.21943,47.627,NaN,3.001,48.0,184.546,0 / 0,20010,2021-03-23 20:33:46:704
-0.02635,0.81876,9.60235,-0.14525,0.79988,9.7729,-0.00115,-0.01117,0.01085,-12.948,17.552,-34.227,33.122,-4.679,0.851,5.0,59.3875,23.000008,120.21943,47.627,NaN,3.001,48.0,184.546,0 / 0,20108,2021-03-23 20:33:46:802
-0.17245,0.98162,9.66223,-0.10581,0.79821,9.77354,0.00304,0.00482,0.00772,-12.761,18.173,-33.145,33.1,-4.647,0.747,5.0,59.3875,23.000008,120.21943,47.627,NaN,3.001,48.0,184.546,0 / 0,20209,2021-03-23 20:33:46:903
-0.06706,0.78523,9.91611,-0.08727,0.80991,9.77276,0.00418,0.00296,0.01085,-14.893,16.264,-34.277,39.27,-4.733,0.542,5.0,59.3875,23.000008,120.21943,47.627,NaN,3.001,48.0,184.546,0 / 0,20308,2021-03-23 20:33:47:002
-0.11496,0.72775,9.79396,-0.08874,0.81286,9.7725,0.00268,0.00471,0.00849,-14.492,14.224,-32.019,40.74,-4.737,0.512,5.0,60.3034,23.000008,120.21943,47.627,NaN,3.001,48.0,184.546,0 / 0,20409,2021-03-23 20:33:47:103
-0.2443,0.83313,9.6263,-0.1105,0.81399,9.77218,-0.00127,3.2E-4,0.00934,-13.976,13.121,-29.981,42.896,-4.761,0.648,5.0,60.3034,23.000008,120.21943,47.627,NaN,3.001,48.0,184.546,0 / 0,20509,2021-03-23 20:33:47:203
-0.02874,0.86666,9.81312,-0.12261,0.80276,9.77297,-0.00801,-0.01325,0.00776,-13.515,13.858,-31.975,40.873,-4.761,0.648,5.0,60.3034,23.000008,120.21943,47.627,NaN,3.001,48.0,184.546,0 / 0,20609,2021-03-23 20:33:47:303
0.02874,0.80439,9.61193,-0.10544,0.79818,9.77354,-0.00984,-0.00536,0.00957,-11.879,11.922,-28.969,40.709,-4.669,0.618,5.0,60.3034,23.000008,120.21943,47.627,NaN,3.001,48.0,184.546,0 / 0,20708,2021-03-23 20:33:47:402
-0.00958,0.69421,9.6742,-0.08316,0.78434,9.77488,-0.00899,-0.0024,0.00516,-12.264,12.267,-27.929,40.833,-4.632,0.578,5.0,59.8082,23.000008,120.21943,47.627,NaN,3.001,48.0,184.546,0 / 0,20809,2021-03-23 20:33:47:503
-0.17484,0.7493,9.67181,-0.0631,0.77752,9.77557,-0.00823,0.00325,0.00729,-12.29,11.286,-28.606,42.629,-4.535,0.392,5.0,59.8082,23.000008,120.21943,47.627,NaN,3.001,48.0,184.546,0 / 0,20908,2021-03-23 20:33:47:602
-0.18921,0.73972,9.95682,-0.07207,0.77517,9.7757,-0.00501,3.0E-5,0.0098,-11.261,11.665,-27.492,38.402,-4.547,0.37,5.0,59.8082,23.000008,120.21943,47.627,NaN,3.001,48.0,184.546,0 / 0,21009,2021-03-23 20:33:47:703
-0.05269,0.74451,10.02388,-0.09428,0.75993,9.77671,0.00153,-5.5E-4,0.00935,-11.117,10.67,-25.231,41.077,-4.444,0.552,5.0,60.2967,23.000008,120.21943,47.627,NaN,3.001,48.0,184.546,0 / 0,21108,2021-03-23 20:33:47:802
-0.11975,0.73493,10.02867,-0.08508,0.76006,9.77678,0.01294,-0.00825,0.00787,-11.729,11.795,-25.153,41.371,-4.436,0.534,5.0,60.2967,23.000008,120.21943,47.627,NaN,3.001,48.0,184.546,0 / 0,21208,2021-03-23 20:33:47:902
-0.15329,0.79241,9.79156,-0.08092,0.76071,9.77677,0.0152,-0.00929,0.00534,-12.031,11.289,-24.862,43.421,-4.449,0.474,5.0,60.2967,23.000008,120.21943,47.627,NaN,3.001,48.0,184.546,0 / 0,21309,2021-03-23 20:33:48:003
0.10778,0.78283,9.5281,-0.06439,0.76826,9.7763,0.0144,-0.00568,0.00805,-13.196,10.384,-24.936,47.925,-4.429,0.401,5.0,64.1106,23.000008,120.21943,47.627,NaN,3.001,48.0,184.546,0 / 0,21408,2021-03-23 20:33:48:102
0.17005,0.88582,9.39158,-0.04549,0.79292,9.77444,0.01096,0.00182,0.01131,-12.276,11.4,-26.25,43.031,-4.587,0.378,5.0,64.1106,23.000008,120.21943,47.627,NaN,3.001,48.0,184.546,0 / 0,21509,2021-03-23 20:33:48:203
0.03353,0.98162,9.56642,-0.0279,0.81867,9.77238,-0.00472,0.01551,0.00296,-13.38,11.779,-26.353,43.025,-4.638,0.267,5.0,64.1106,23.000008,120.21943,47.627,NaN,3.001,48.0,184.546,0 / 0,21609,2021-03-23 20:33:48:303
-0.41914,0.92175,9.9664,-0.02978,0.83501,9.77099,-0.01081,0.02018,-7.0E-5,-13.136,11.21,-25.198,44.98,-4.884,0.175,5.0,65.7422,23.000008,120.21943,47.627,NaN,3.001,48.0,184.546,0 / 0,21709,2021-03-23 20:33:48:403
-0.10299,0.7517,9.79156,-0.11529,0.82499,9.77121,-0.00673,-0.0102,0.00587,-13.44,10.389,-25.217,47.555,-4.843,0.445,5.0,65.7422,23.000008,120.21943,47.627,NaN,3.001,48.0,184.546,0 / 0,21810,2021-03-23 20:33:48:504
0.0479,0.74691,9.81551,-0.12338,0.81412,9.77202,-0.00228,-0.01155,0.00548,-12.865,9.629,-22.895,48.25,-4.762,0.723,5.0,65.7422,23.000008,120.21943,47.627,NaN,3.001,48.0,184.546,0 / 0,21908,2021-03-23 20:33:48:602
-0.00479,0.73493,9.6766,-0.08178,0.80469,9.77324,0.00816,-0.00303,0.00293,-13.309,9.607,-22.861,48.237,-4.709,0.655,5.0,65.7422,23.000008,120.21943,47.627,NaN,3.001,48.0,184.546,0 / 0,22009,2021-03-23 20:33:48:703
-0.20837,0.88103,9.76282,-0.06297,0.81931,9.77216,0.00706,0.0044,0.00298,-13.305,8.305,-22.127,53.298,-4.758,0.35,5.0,60.896,23.000008,120.21943,47.627,NaN,3.001,48.0,184.546,0 / 0,22109,2021-03-23 20:33:48:803
-0.29699,0.88343,9.82988,-0.0767,0.82592,9.77151,0.00143,0.00419,0.00892,-13.205,9.187,-22.158,50.587,-4.792,0.369,5.0,60.896,23.000008,120.21943,47.627,NaN,3.001,48.0,184.546,0 / 0,22209,2021-03-23 20:33:48:903
-0.29939,0.96965,9.85623,-0.12215,0.83109,9.77061,0.00345,-0.01124,0.00835,-12.538,8.493,-21.437,53.713,-4.862,0.716,5.0,60.896,23.000008,120.21943,47.627,NaN,3.001,48.0,184.546,0 / 0,22308,2021-03-23 20:33:49:002
0.02874,0.84031,9.9209,-0.12879,0.84326,9.76948,-0.00362,-0.01853,0.00718,-13.114,7.927,-19.392,54.12,-4.886,0.72,5.0,62.3686,23.000008,120.21943,47.627,NaN,3.001,48.0,184.546,0 / 0,22409,2021-03-23 20:33:49:103
0.08862,0.75888,9.80833,-0.10861,0.84022,9.76999,-0.00406,-0.02289,0.01076,-10.888,8.866,-17.633,46.85,-4.915,0.637,5.0,62.3686,23.000008,120.21943,47.627,NaN,3.001,48.0,184.546,0 / 0,22509,2021-03-23 20:33:49:203
0.10299,0.8451,9.63588,-0.04246,0.83431,9.771,-0.01078,-0.00188,0.00409,-12.628,8.928,-18.416,51.365,-4.874,0.393,5.0,62.3686,23.000008,120.21943,47.627,NaN,3.001,48.0,184.546,0 / 0,22609,2021-03-23 20:33:49:303
-0.07664,0.83792,9.82749,-0.01663,0.82755,9.77166,-0.02144,0.00185,0.00307,-12.905,8.907,-15.229,51.856,-4.848,0.116,5.0,63.9867,23.000008,120.21943,47.627,NaN,3.001,48.0,184.546,0 / 0,22709,2021-03-23 20:33:49:403
0.00239,0.82594,9.83228,-0.01439,0.80501,9.77354,-0.01215,0.00924,0.00134,-12.322,8.417,-16.212,52.228,-4.841,0.097,5.0,63.9867,23.000008,120.21943,47.627,NaN,3.001,48.0,184.546,0 / 0,22808,2021-03-23 20:33:49:502
-0.1485,0.72296,9.47302,-0.02447,0.78321,9.77529,-0.00616,0.01453,0.00219,-11.992,8.938,-15.585,49.6,-4.581,0.143,5.0,63.9867,23.000008,120.21943,47.627,NaN,3.001,48.0,184.546,0 / 0,22908,2021-03-23 20:33:49:602
-0.12933,0.71338,9.41793,-0.04413,0.77901,9.77556,-0.00137,0.01354,0.00405,-10.495,9.421,-15.137,44.667,-4.571,0.179,5.0,64.9848,23.000008,120.21943,47.627,NaN,3.001,48.0,184.546,0 / 0,23008,2021-03-23 20:33:49:702
-0.34729,0.66547,10.01909,-0.06562,0.78531,9.77494,-0.00272,0.00937,0.00118,-12.031,9.552,-12.345,47.882,-4.593,0.385,5.0,64.9848,23.000008,120.21943,47.627,NaN,3.001,48.0,184.546,0 / 0,23109,2021-03-23 20:33:49:803
0.00479,0.80439,10.08376,-0.11173,0.77537,9.77531,-1.0E-4,-0.01426,0.00151,-12.137,10.398,-13.752,47.602,-4.592,0.552,5.0,64.9848,23.000008,120.21943,47.627,NaN,3.001,48.0,184.546,0 / 0,23209,2021-03-23 20:33:49:903
0.32334,0.72535,9.82988,-0.05762,0.77165,9.77607,-0.00338,-0.01301,0.00143,-11.738,11.399,-11.292,45.68,-4.529,0.571,5.0,64.9848,23.000008,120.21943,47.627,NaN,3.001,48.0,184.546,0 / 0,23308,2021-03-23 20:33:50:002
0.17484,0.64392,9.75563,-0.01421,0.76683,9.77661,-0.00913,-0.01452,-0.019,-12.777,9.632,-11.899,50.155,-4.513,0.338,5.0,68.6701,23.000008,120.21943,47.627,NaN,3.001,48.0,184.546,0 / 0,23409,2021-03-23 20:33:50:103
-0.10299,0.61278,9.69576,0.02914,0.74878,9.77798,-0.00736,-0.01164,-0.02603,-11.672,11.11,-11.064,45.408,-4.433,-0.063,5.0,68.6701,23.000008,120.21943,47.627,NaN,3.001,48.0,184.546,0 / 0,23509,2021-03-23 20:33:50:203
0.11017,0.69182,9.64546,0.00627,0.732,9.77929,-0.00153,-0.01426,-0.01634,-13.379,10.637,-10.111,47.897,-4.327,-0.14,5.0,68.6701,23.000008,120.21943,47.627,NaN,3.001,48.0,184.546,0 / 0,23609,2021-03-23 20:33:50:303
0.17724,0.7517,9.93287,0.02056,0.72858,9.77953,-5.5E-4,-0.00589,-0.01789,-12.865,11.589,-9.527,45.596,-4.261,-0.12,5.0,67.1069,23.000008,120.21943,47.627,NaN,3.001,48.0,184.546,0 / 0,23709,2021-03-23 20:33:50:403
0.11257,0.72535,9.71492,0.05246,0.73925,9.77861,5.2E-4,3.9E-4,-0.0264,-13.897,12.677,-9.695,45.502,-4.324,-0.209,5.0,67.1069,23.000008,120.21943,47.627,NaN,3.001,48.0,184.546,0 / 0,23809,2021-03-23 20:33:50:503
-0.06946,0.80918,9.41074,0.05764,0.73965,9.77855,0.00102,0.01227,-0.02559,-15.545,12.535,-8.597,49.429,-4.316,-0.379,5.0,67.1069,23.000008,120.21943,47.627,NaN,3.001,48.0,184.546,0 / 0,23908,2021-03-23 20:33:50:602
-0.04311,0.80199,9.68378,0.03264,0.7533,9.77762,-0.00544,0.01416,-0.02081,-15.956,12.004,-7.776,51.749,-4.326,-0.338,5.0,64.3994,23.000008,120.21943,47.627,NaN,3.001,48.0,184.546,0 / 0,24009,2021-03-23 20:33:50:703
-0.26825,0.98402,9.70294,-0.00765,0.76271,9.77694,-0.00445,0.01681,-0.01834,-16.094,12.516,-8.109,49.684,-4.461,0.045,5.0,64.3994,23.000008,120.21943,47.627,NaN,3.001,48.0,184.546,0 / 0,24109,2021-03-23 20:33:50:803
-0.28501,0.79002,9.71971,-0.07165,0.7733,9.77585,-0.00583,0.0097,-0.01045,-16.33,14.852,-10.843,45.439,-4.435,0.233,5.0,64.3994,23.000008,120.21943,47.627,NaN,3.001,48.0,184.546,0 / 0,24209,2021-03-23 20:33:50:903
-0.05269,0.75409,9.68857,-0.10178,0.77233,9.77566,-0.00265,-5.7E-4,-0.01051,-17.978,15.358,-9.725,49.019,-4.517,0.597,5.0,60.4945,23.000008,120.21943,47.627,NaN,3.001,48.0,184.546,0 / 0,24309,2021-03-23 20:33:51:003
-0.17963,0.74691,9.58558,-0.10644,0.77382,9.77549,0.00449,-0.0134,-0.01385,-17.658,15.778,-9.269,47.42,-4.495,0.693,5.0,60.4945,23.000008,120.21943,47.627,NaN,3.001,48.0,184.546,0 / 0,24409,2021-03-23 20:33:51:103
0.5341,0.98881,9.90174,-0.06442,0.79461,9.77419,0.00285,-0.02465,-0.01647,-18.538,17.89,-12.614,45.253,-4.564,0.578,5.0,60.4945,23.000008,120.21943,47.627,NaN,3.001,48.0,184.546,0 / 0,24509,2021-03-23 20:33:51:203
0.29938,0.64152,9.75803,-0.00407,0.80691,9.7734,-0.01608,0.00277,-0.03203,-19.022,18.497,-12.532,45.152,-4.648,0.378,5.0,60.1378,23.000008,120.21943,47.627,NaN,3.001,48.0,184.546,0 / 0,24608,2021-03-23 20:33:51:302
-0.05269,0.73972,9.82988,0.08898,0.78601,9.77469,-0.01082,0.00564,-0.04166,-19.979,18.639,-11.945,44.964,-4.597,-0.522,5.0,60.1378,23.000008,120.21943,47.627,NaN,3.001,48.0,184.546,0 / 0,24708,2021-03-23 20:33:51:402
-0.54368,0.72775,9.80114,0.03312,0.7666,9.77658,-0.00577,-4.5E-4,-0.04325,-19.765,19.945,-14.496,43.357,-4.53,-0.48,5.0,60.1378,23.000008,120.21943,47.627,NaN,3.001,48.0,184.546,0 / 0,24809,2021-03-23 20:33:51:503
-0.45267,0.96486,9.67899,-0.0326,0.76154,9.77698,-0.00429,-0.01547,-0.03193,-17.937,18.811,-14.345,42.025,-4.454,0.191,5.0,60.1378,23.000008,120.21943,47.627,NaN,3.001,48.0,184.546,0 / 0,24909,2021-03-23 20:33:51:603
-0.15089,0.90019,9.95443,-0.07074,0.74584,9.77799,-0.00647,-0.02709,-0.00906,-18.157,18.793,-13.466,42.254,-4.365,0.444,5.0,60.2332,23.000008,120.21943,47.627,NaN,3.001,48.0,184.546,0 / 0,25009,2021-03-23 20:33:51:703
0.12933,0.67266,9.69576,-0.07308,0.7356,9.77875,-0.00835,-0.02212,-5.6E-4,-19.047,19.399,-14.756,43.623,-4.385,0.521,5.0,60.2332,23.000008,120.21943,47.627,NaN,3.001,48.0,184.546,0 / 0,25108,2021-03-23 20:33:51:802
0.16286,0.75649,9.94964,-0.04738,0.72032,9.78004,-0.00284,0.00186,-0.00192,-18.373,19.862,-15.683,40.608,-4.302,0.428,5.0,60.2332,23.000008,120.21943,47.627,NaN,3.001,48.0,184.546,0 / 0,25209,2021-03-23 20:33:51:903
-0.17245,0.70619,9.93048,-0.00596,0.71158,9.7808,0.00251,0.01169,-0.00505,-15.901,20.914,-15.868,35.914,-4.161,0.035,5.0,61.6839,23.000008,120.21943,47.627,NaN,3.001,48.0,184.546,0 / 0,25309,2021-03-23 20:33:52:003
-0.20837,0.61278,10.03346,-0.03383,0.69875,9.78167,0.00582,0.02586,0.00358,-15.979,21.389,-14.931,36.031,-4.123,0.072,5.0,61.6839,23.000008,120.21943,47.627,NaN,3.001,48.0,184.546,0 / 0,25409,2021-03-23 20:33:52:103
-0.46704,0.56728,9.65504,-0.06211,0.68664,9.78239,0.0143,0.02292,0.00506,-16.005,21.329,-15.377,36.199,-4.015,0.364,5.0,61.6839,23.000008,120.21943,47.627,NaN,3.001,48.0,184.546,0 / 0,25508,2021-03-23 20:33:52:202
-0.4383,0.77325,9.55205,-0.15729,0.68183,9.78165,0.01908,-0.01138,0.01022,-15.366,21.937,-16.91,33.319,-3.963,0.65,5.0,59.1975,23.000008,120.21943,47.627,NaN,3.001,48.0,184.546,0 / 0,25609,2021-03-23 20:33:52:303
-0.08143,0.6535,9.78438,-0.2017,0.70349,9.77931,0.01301,-0.02107,0.01776,-16.33,22.142,-16.628,35.215,-4.069,1.105,5.0,59.1975,23.000008,120.21943,47.627,NaN,3.001,48.0,184.546,0 / 0,25708,2021-03-23 20:33:52:402
0.38082,0.66308,9.7748,-0.18183,0.70795,9.77937,0.01708,-0.01421,0.02019,-15.285,22.738,-19.757,32.323,-4.114,1.182,5.0,59.1975,23.000008,120.21943,47.627,NaN,3.001,48.0,184.546,0 / 0,25810,2021-03-23 20:33:52:504
0.15807,0.85229,9.7724,-0.10116,0.71469,9.78005,0.02432,0.01028,0.02262,-16.687,22.927,-20.856,35.144,-4.179,0.593,5.0,59.1975,23.000008,120.21943,47.627,NaN,3.001,48.0,184.546,0 / 0,25909,2021-03-23 20:33:52:603
-0.32813,1.00318,9.60714,-0.06853,0.75893,9.777,0.01245,0.03182,0.02,-15.476,22.27,-20.152,32.884,-4.298,0.424,5.0,58.6617,23.000008,120.21943,47.627,NaN,3.001,48.0,184.546,0 / 0,26010,2021-03-23 20:33:52:704
-0.55087,0.87624,9.55684,-0.10048,0.7883,9.7744,0.00471,0.02795,0.01386,-14.556,22.446,-23.105,32.664,-4.611,0.589,5.0,58.6617,23.000008,120.21943,47.627,NaN,3.001,48.0,184.546,0 / 0,26109,2021-03-23 20:33:52:803
-0.2922,0.88103,9.94724,-0.2092,0.81006,9.7709,-0.00632,-0.00462,0.02364,-15.299,21.758,-24.794,32.737,-4.706,0.925,5.0,58.6617,23.000008,120.21943,47.627,NaN,3.001,48.0,184.546,0 / 0,26209,2021-03-23 20:33:52:903
-0.03353,0.68703,10.15322,-0.23879,0.80068,9.77099,-0.00541,-0.004,0.03265,-13.62,22.636,-24.066,30.345,-4.749,1.357,5.0,59.2772,23.000008,120.21943,47.627,NaN,3.001,48.0,184.546,0 / 0,26309,2021-03-23 20:33:53:003
-0.05509,0.57207,9.89934,-0.22522,0.78675,9.77245,0.01196,3.2E-4,0.03026,-15.918,22.04,-23.704,34.805,-4.683,1.4,5.0,59.2772,23.000008,120.21943,47.627,NaN,3.001,48.0,184.546,0 / 0,26409,2021-03-23 20:33:53:103
-0.18203,0.88103,9.50655,-0.20366,0.78139,9.77335,0.01029,0.00567,0.03526,-13.979,21.838,-25.908,31.23,-4.57,1.194,5.0,59.2772,23.000008,120.21943,47.627,NaN,3.001,48.0,184.546,0 / 0,26509,2021-03-23 20:33:53:203
-0.36645,0.87145,9.70534,-0.20028,0.79741,9.77212,7.3E-4,-9.8E-4,0.03837,-12.761,21.601,-25.395,29.472,-4.582,1.174,5.0,60.2362,23.000008,120.21943,47.627,NaN,3.001,48.0,184.546,0 / 0,26609,2021-03-23 20:33:53:303
0.05748,0.92893,9.69815,-0.21179,0.79831,9.77181,-0.00712,-0.01425,0.03198,-12.647,20.18,-26.938,31.564,-4.669,1.242,5.0,60.2362,23.000008,120.21943,47.627,NaN,3.001,48.0,184.546,0 / 0,26710,2021-03-23 20:33:53:404
0.15568,0.76367,9.73168,-0.16343,0.79509,9.773,-0.0255,-0.01332,0.02942,-12.305,22.24,-28.587,27.419,-4.7,1.183,5.0,60.2362,23.000008,120.21943,47.627,NaN,3.001,48.0,184.546,0 / 0,26809,2021-03-23 20:33:53:503
0.18442,0.64392,9.92569,-0.07326,0.76182,9.77674,-0.02166,-0.01067,0.0208,-11.146,21.118,-28.475,26.115,-4.57,0.718,5.0,59.8886,23.000008,120.21943,47.627,NaN,3.001,48.0,184.546,0 / 0,26909,2021-03-23 20:33:53:603
0.0982,0.63434,9.72211,-0.0386,0.74323,9.77837,-0.00927,-0.00451,0.00425,-12.23,19.826,-27.299,28.981,-4.455,0.429,5.0,59.8886,23.000008,120.21943,47.627,NaN,3.001,48.0,184.546,0 / 0,27009,2021-03-23 20:33:53:703
-0.02395,0.75409,9.93048,-0.01283,0.72558,9.77976,-0.00572,-0.00357,0.00318,-11.64,20.598,-28.932,27.539,-4.243,0.075,5.0,59.8886,23.000008,120.21943,47.627,NaN,3.001,48.0,184.546,0 / 0,27109,2021-03-23 20:33:53:803
-0.04072,0.76128,9.88976,-0.01643,0.71137,9.7808,-0.00956,-0.00201,0.00507,-10.703,19.089,-29.064,27.663,-4.184,0.082,5.0,59.8886,23.000008,120.21943,47.627,NaN,3.001,48.0,184.546,0 / 0,27209,2021-03-23 20:33:53:903
0.09341,0.56967,9.70055,-0.01893,0.70212,9.78146,-0.00895,-0.0045,0.00438,-10.019,18.682,-27.392,25.704,-4.106,0.111,5.0,60.0351,23.000008,120.21943,47.627,NaN,3.001,48.0,184.546,0 / 0,27309,2021-03-23 20:33:54:003
0.08862,0.68224,9.41793,-1.8E-4,0.67758,9.78321,0.0074,0.00232,-0.00291,-8.116,20.006,-30.388,20.073,-4.005,0.106,5.0,60.0351,23.000008,120.21943,47.627,NaN,3.001,48.0,184.546,0 / 0,27408,2021-03-23 20:33:54:102
-0.07425,0.83313,9.80354,0.01346,0.69599,9.78191,0.01016,0.00223,-0.005,-8.518,18.514,-30.507,23.035,-3.991,-0.043,5.0,60.0351,23.000008,120.21943,47.627,NaN,3.001,48.0,184.546,0 / 0,27509,2021-03-23 20:33:54:203
-0.01916,0.88103,9.9209,0.00946,0.71309,9.78069,0.0109,0.01189,-0.0043,-7.446,18.013,-27.841,19.243,-4.07,-0.079,5.0,60.4538,23.000008,120.21943,47.627,NaN,3.001,48.0,184.546,0 / 0,27609,2021-03-23 20:33:54:303
-0.03353,0.8978,9.72929,-0.01126,0.73296,9.77921,0.00771,0.01046,-0.00421,-6.299,18.131,-29.159,16.695,-4.286,0.066,5.0,60.4538,23.000008,120.21943,47.627,NaN,3.001,48.0,184.546,0 / 0,27709,2021-03-23 20:33:54:403
-0.00719,0.69182,9.72211,-0.02832,0.75462,9.77753,-0.01113,0.01001,-0.00847,-6.331,17.513,-28.961,16.75,-4.355,0.127,5.0,60.4538,23.000008,120.21943,47.627,NaN,3.001,48.0,184.546,0 / 0,27809,2021-03-23 20:33:54:503
-0.12215,0.5074,9.65744,-0.03889,0.75258,9.77765,-0.01398,0.00622,-0.00889,-7.644,16.642,-28.47,23.014,-4.401,0.228,5.0,60.6474,23.000008,120.21943,47.627,NaN,3.001,48.0,184.546,0 / 0,27908,2021-03-23 20:33:54:602
-0.16526,0.80439,9.67181,-0.06539,0.72501,9.7796,0.00531,-0.00626,-0.01312,-6.588,17.544,-30.462,19.522,-4.33,0.317,5.0,60.6474,23.000008,120.21943,47.627,NaN,3.001,48.0,184.546,0 / 0,28009,2021-03-23 20:33:54:703
0.06227,0.8451,9.82509,-0.07787,0.74246,9.77819,0.00936,-0.01358,-0.01374,-6.327,17.257,-30.102,18.022,-4.292,0.468,5.0,60.6474,23.000008,120.21943,47.627,NaN,3.001,48.0,184.546,0 / 0,28109,2021-03-23 20:33:54:803
0.21077,0.74451,9.69576,-0.05714,0.75731,9.7772,0.01255,-5.5E-4,-0.01167,-6.038,16.45,-29.792,18.9,-4.342,0.456,5.0,60.5344,23.000008,120.21943,47.627,NaN,3.001,48.0,184.546,0 / 0,28209,2021-03-23 20:33:54:903
-0.08143,0.68224,9.80114,-0.00613,0.7635,9.77688,0.01139,0.0171,-0.014,-6.782,15.482,-28.728,22.183,-4.465,0.036,5.0,60.5344,23.000008,120.21943,47.627,NaN,3.001,48.0,184.546,0 / 0,28310,2021-03-23 20:33:55:004
-0.59638,0.7972,9.576,-0.04935,0.77584,9.77579,0.00775,0.01849,-0.01388,-7.461,14.078,-29.772,23.305,-4.522,0.059,5.0,60.5344,23.000008,120.21943,47.627,NaN,3.001,48.0,184.546,0 / 0,28409,2021-03-23 20:33:55:103
-0.51015,0.88582,9.71013,-0.11363,0.78642,9.77441,0.00113,0.00668,-0.00519,-6.202,15.201,-30.585,20.044,-4.6,0.666,5.0,60.5344,23.000008,120.21943,47.627,NaN,3.001,48.0,184.546,0 / 0,28508,2021-03-23 20:33:55:202
-0.00719,0.77325,9.82988,-0.2117,0.79224,9.7723,-0.00747,-0.02517,0.00544,-7.182,15.695,-31.839,22.246,-4.635,1.034,5.0,60.3454,23.000008,120.21943,47.627,NaN,3.001,48.0,184.546,0 / 0,28609,2021-03-23 20:33:55:303
0.12454,0.97923,9.89216,-0.16515,0.80229,9.77238,-0.00441,-0.02621,-0.00144,-5.81,13.639,-30.59,21.963,-4.684,1.192,5.0,60.3454,23.000008,120.21943,47.627,NaN,3.001,48.0,184.546,0 / 0,28709,2021-03-23 20:33:55:403
0.22274,0.93372,9.82749,-0.1186,0.81492,9.77201,-0.00909,-0.01083,-7.7E-4,-6.412,14.668,-30.617,20.467,-4.693,0.968,5.0,60.3454,23.000008,120.21943,47.627,NaN,3.001,48.0,184.546,0 / 0,28809,2021-03-23 20:33:55:503
0.19161,0.90738,9.71252,-0.04653,0.83249,9.77114,-0.01098,0.00552,-0.00251,-7.021,14.98,-29.879,22.215,-4.87,0.273,5.0,60.1833,23.000008,120.21943,47.627,NaN,3.001,48.0,184.546,0 / 0,28909,2021-03-23 20:33:55:603
-0.0503,0.78523,9.74366,-0.02559,0.83178,9.77128,-0.01167,0.01245,-0.01598,-6.175,15.659,-30.602,18.144,-4.891,0.166,5.0,60.1833,23.000008,120.21943,47.627,NaN,3.001,48.0,184.546,0 / 0,29008,2021-03-23 20:33:55:702
-0.0958,0.78283,9.7724,-0.03486,0.82609,9.77173,-0.0083,0.00965,-0.01804,-8.67,14.715,-31.468,27.428,-4.832,0.204,5.0,60.1833,23.000008,120.21943,47.627,NaN,3.001,48.0,184.546,0 / 0,29109,2021-03-23 20:33:55:803
0.12694,0.92175,9.93766,-0.04996,0.80728,9.77324,0.00438,-0.0053,-0.02343,-8.395,16.033,-30.466,23.821,-4.745,0.256,5.0,60.5595,23.000008,120.21943,47.627,NaN,3.001,48.0,184.546,0 / 0,29208,2021-03-23 20:33:55:902
-0.02395,0.82594,9.59037,-0.01458,0.80586,9.77347,0.00741,-0.00813,-0.03215,-7.955,14.955,-32.726,24.71,-4.65,0.191,5.0,60.5595,23.000008,120.21943,47.627,NaN,3.001,48.0,184.546,0 / 0,29309,2021-03-23 20:33:56:003
-0.32094,0.77565,9.55924,-0.01029,0.81183,9.77298,6.8E-4,0.00168,-0.03156,-7.904,13.725,-31.387,25.997,-4.714,0.085,5.0,60.5595,23.000008,120.21943,47.627,NaN,3.001,48.0,184.546,0 / 0,29409,2021-03-23 20:33:56:103
-0.51255,0.78044,9.66462,-0.06732,0.83136,9.77112,-0.00315,0.00359,-0.01939,-8.271,14.413,-30.811,26.363,-4.863,0.395,5.0,60.5808,23.000008,120.21943,47.627,NaN,3.001,48.0,184.546,0 / 0,29509,2021-03-23 20:33:56:203
-0.34489,0.88343,9.94245,-0.14837,0.81669,9.77146,-0.01225,-0.0038,-0.00241,-7.378,15.484,-32.14,22.675,-4.837,0.662,5.0,60.5808,23.000008,120.21943,47.627,NaN,3.001,48.0,184.546,0 / 0,29609,2021-03-23 20:33:56:303
-0.11975,0.74691,9.93527,-0.17144,0.81056,9.77159,-0.01192,-0.00691,5.5E-4,-9.098,14.934,-32.186,28.537,-4.741,1.005,5.0,60.5808,23.000008,120.21943,47.627,NaN,3.001,48.0,184.546,0 / 0,29708,2021-03-23 20:33:56:402
-0.2922,0.67266,9.60714,-0.16821,0.78792,9.7735,-0.00498,-0.00197,0.00471,-8.997,14.432,-31.353,30.09,-4.709,1.022,5.0,60.5808,23.000008,120.21943,47.627,NaN,3.001,48.0,184.546,0 / 0,29809,2021-03-23 20:33:56:503
-0.43591,0.63434,9.67899,-0.19349,0.77262,9.77425,0.00532,-1.6E-4,0.00813,-8.571,15.687,-33.778,27.308,-4.546,1.047,5.0,59.3907,23.000008,120.21943,47.627,NaN,3.001,48.0,184.546,0 / 0,29908,2021-03-23 20:33:56:602
-0.13412,0.90738,9.90892,-0.211,0.77079,9.77404,0.00823,0.00132,0.02329,-9.802,16.403,-34.064,29.826,-4.519,1.134,5.0,59.3907,23.000008,120.21943,47.627,NaN,3.001,48.0,184.546,0 / 0,30009,2021-03-23 20:33:56:703
-0.06706,0.87145,9.59756,-0.204,0.7828,9.77323,0.00614,0.00819,0.02428,-10.246,16.289,-35.608,29.752,-4.578,1.196,5.0,59.3907,23.000008,120.21943,47.627,NaN,3.001,48.0,184.546,0 / 0,30109,2021-03-23 20:33:56:803
-0.23711,0.80678,9.64786,-0.17604,0.79892,9.77247,0.00783,0.01221,0.01425,-10.328,15.007,-34.841,31.02,-4.602,1.1,5.0,58.9355,23.000008,120.21943,47.627,NaN,3.001,48.0,184.546,0 / 0,30208,2021-03-23 20:33:56:902
-0.45507,0.7517,9.7724,-0.18873,0.80366,9.77184,0.00333,0.012,0.01772,-10.839,16.875,-34.844,30.532,-4.701,1.106,5.0,58.9355,23.000008,120.21943,47.627,NaN,3.001,48.0,184.546,0 / 0,30308,2021-03-23 20:33:57:002
-0.33771,0.81876,9.88736,-0.24552,0.80883,9.77015,0.00419,-0.00101,0.03059,-10.654,17.992,-35.27,29.514,-4.746,1.285,5.0,58.9355,23.000008,120.21943,47.627,NaN,3.001,48.0,184.546,0 / 0,30409,2021-03-23 20:33:57:103
-0.18442,0.71577,9.97359,-0.25549,0.80537,9.77018,0.00269,-0.01224,0.02638,-10.318,17.559,-36.387,27.654,-4.735,1.509,5.0,59.2112,23.000008,120.21943,47.627,NaN,3.001,48.0,184.546,0 / 0,30509,2021-03-23 20:33:57:203
-0.07904,0.67745,9.53768,-0.23568,0.79676,9.77139,0.00463,-0.01962,0.02223,-9.882,19.992,-36.81,25.536,-4.711,1.498,5.0,59.2112,23.000008,120.21943,47.627,NaN,3.001,48.0,184.546,0 / 0,30608,2021-03-23 20:33:57:302
-0.02156,0.7014,9.54966,-0.19936,0.79146,9.77263,0.00347,-0.01414,0.02593,-10.744,18.046,-37.035,29.339,-4.629,1.169,5.0,59.2112,23.000008,120.21943,47.627,NaN,3.001,48.0,184.546,0 / 0,30709,2021-03-23 20:33:57:403
-0.10778,0.98162,9.85383,-0.14535,0.78337,9.77423,0.00965,0.0032,0.02278,-10.786,17.014,-35.299,30.475,-4.6,1.008,5.0,58.73,23.000008,120.21943,47.627,NaN,3.001,48.0,184.546,0 / 0,30809,2021-03-23 20:33:57:503
-0.31855,0.93851,9.51373,-0.13543,0.78547,9.77421,0.01125,3.0E-4,0.01965,-10.773,17.273,-36.715,30.053,-4.594,0.794,5.0,58.73,23.000008,120.21943,47.627,NaN,3.001,48.0,184.546,0 / 0,30909,2021-03-23 20:33:57:603
-0.26585,0.82594,9.80593,-0.16935,0.82363,9.77054,-9.9E-4,-0.01241,0.02425,-9.665,18.198,-35.783,26.802,-4.685,0.865,5.0,58.73,23.000008,120.21943,47.627,NaN,3.001,48.0,184.546,0 / 0,31009,2021-03-23 20:33:57:703
0.02874,0.96725,9.84665,-0.17222,0.82978,9.76996,-0.00232,-0.01588,0.02706,-10.545,17.277,-36.981,30.156,-4.854,1.01,5.0,58.73,23.000008,120.21943,47.627,NaN,3.001,48.0,184.546,0 / 0,31109,2021-03-23 20:33:57:803
0.02395,0.7996,9.75085,-0.1492,0.83633,9.76979,-0.0068,-0.0067,0.02235,-10.722,16.331,-33.746,31.666,-4.854,1.01,5.0,59.2003,23.000008,120.21943,47.627,NaN,3.001,48.0,184.546,0 / 0,31209,2021-03-23 20:33:57:903
-0.05988,0.74212,9.67181,-0.10005,0.82554,9.77133,-0.00663,-0.00594,0.02095,-10.201,16.932,-34.764,27.524,-4.829,0.587,5.0,59.2003,23.000008,120.21943,47.627,NaN,3.001,48.0,184.546,0 / 0,31310,2021-03-23 20:33:58:004
0.01197,0.83792,9.62151,-0.08658,0.81125,9.77265,-0.01184,0.0045,0.02192,-10.076,17.056,-35.26,27.449,-4.814,0.526,5.0,59.2003,23.000008,120.21943,47.627,NaN,3.001,48.0,184.546,0 / 0,31409,2021-03-23 20:33:58:103
0.0,0.81876,9.89934,-0.07877,0.80817,9.77298,-0.01213,0.01049,0.02202,-9.908,15.705,-34.677,28.645,-4.727,0.462,5.0,58.8737,23.000008,120.21943,47.627,NaN,3.001,48.0,184.546,0 / 0,31508,2021-03-23 20:33:58:202
-0.01677,0.52656,9.97598,-0.06682,0.78156,9.77523,-0.00823,-0.00179,0.008,-8.64,15.548,-33.526,26.293,-4.69,0.421,5.0,58.8737,23.000008,120.21943,47.627,NaN,3.001,48.0,184.546,0 / 0,31610,2021-03-23 20:33:58:304
-0.05509,0.57446,9.65025,-0.07445,0.72213,9.77974,-0.00413,-0.00673,0.00437,-9.566,15.678,-33.779,29.069,-4.223,0.436,5.0,58.8737,23.000008,120.21943,47.627,NaN,3.001,48.0,184.546,0 / 0,31709,2021-03-23 20:33:58:403
0.00718,0.61757,9.8706,-0.06859,0.7056,9.78099,-7.2E-4,-0.00273,0.0091,-10.559,15.046,-30.303,33.194,-4.223,0.436,5.0,60.04,23.000008,120.21943,47.627,NaN,3.001,48.0,184.546,0 / 0,31808,2021-03-23 20:33:58:502
0.05748,0.53853,9.75324,-0.04315,0.68357,9.7827,-0.00304,-0.00257,0.00659,-9.016,13.856,-31.666,29.444,-3.997,0.253,5.0,60.04,23.000008,120.21943,47.627,NaN,3.001,48.0,184.546,0 / 0,31909,2021-03-23 20:33:58:603
-0.18203,0.65829,9.47781,-0.03836,0.66685,9.78388,-0.00869,-0.00282,0.00186,-9.376,14.38,-32.913,29.333,-3.911,0.195,5.0,60.04,23.000008,120.21943,47.627,NaN,3.001,48.0,184.546,0 / 0,32009,2021-03-23 20:33:58:703
-0.10538,0.63673,9.73168,-0.05364,0.66095,9.7842,-0.01126,-0.00645,0.00636,-8.647,14.482,-32.914,29.558,-3.865,0.314,5.0,59.8993,23.000008,120.21943,47.627,NaN,3.001,48.0,184.546,0 / 0,32108,2021-03-23 20:33:58:802
-0.01916,0.65829,9.84186,-0.05721,0.65209,9.78478,-0.01828,-0.01152,0.00756,-8.968,15.508,-29.963,27.037,-3.842,0.327,5.0,59.8993,23.000008,120.21943,47.627,NaN,3.001,48.0,184.546,0 / 0,32208,2021-03-23 20:33:58:902
0.00239,0.6056,9.76043,-0.04153,0.62997,9.78631,-0.01343,-0.01391,0.00385,-8.539,13.805,-31.066,29.776,-3.683,0.243,5.0,59.8993,23.000008,120.21943,47.627,NaN,3.001,48.0,184.546,0 / 0,32308,2021-03-23 20:33:59:002
0.16766,0.6511,9.73887,-0.03156,0.6233,9.78677,0.00144,-0.01552,0.00147,-8.824,13.454,-30.848,31.396,-3.683,0.243,5.0,59.8993,23.000008,120.21943,47.627,NaN,3.001,48.0,184.546,0 / 0,32408,2021-03-23 20:33:59:102
0.23232,0.6032,9.79635,0.0045,0.63652,9.78597,-7.3E-4,-0.00929,9.1E-4,-9.074,12.541,-29.979,31.06,-3.722,-0.026,5.0,60.3215,23.000008,120.21943,47.627,NaN,3.001,48.0,184.546,0 / 0,32509,2021-03-23 20:33:59:203
0.17005,0.54332,9.93287,0.0536,0.64275,9.78542,0.00138,0.00265,-0.00633,-8.934,12.63,-30.304,30.81,-3.746,-0.18,5.0,60.3215,23.000008,120.21943,47.627,NaN,3.001,48.0,184.546,0 / 0,32609,2021-03-23 20:33:59:303
-0.00719,0.68224,9.97838,0.06587,0.63095,9.78611,0.0046,0.00692,-0.01173,-7.63,12.671,-28.738,27.737,-3.689,-0.386,5.0,60.3215,23.000008,120.21943,47.627,NaN,3.001,48.0,184.546,0 / 0,32709,2021-03-23 20:33:59:403
-0.10299,0.55769,9.85623,0.04238,0.63469,9.786,0.0071,0.00449,-0.01189,-7.256,13.716,-31.29,23.103,-3.671,-0.354,5.0,61.0023,23.000008,120.21943,47.627,NaN,3.001,48.0,184.546,0 / 0,32808,2021-03-23 20:33:59:502
0.01197,0.51698,9.56403,0.02089,0.63202,9.78624,0.01123,0.00556,-0.00965,-6.664,12.436,-28.571,26.548,-3.701,-0.16,5.0,61.0023,23.000008,120.21943,47.627,NaN,3.001,48.0,184.546,0 / 0,32909,2021-03-23 20:33:59:603
0.08622,0.79002,9.56163,0.01728,0.64022,9.78572,0.01139,0.00613,-0.01277,-7.182,11.483,-27.719,28.499,-3.695,-0.122,5.0,61.0023,23.000008,120.21943,47.627,NaN,3.001,48.0,184.546,0 / 0,33009,2021-03-23 20:33:59:703
-0.07425,0.73972,9.56403,0.01693,0.67465,9.7834,0.00437,0.00519,-0.01707,-5.052,11.866,-28.388,19.609,-3.945,-0.099,5.0,60.5069,23.000008,120.21943,47.627,NaN,3.001,48.0,184.546,0 / 0,33108,2021-03-23 20:33:59:802
-0.08383,0.65829,9.4826,-0.00792,0.68803,9.78248,-0.0076,-0.00135,-0.01455,-3.747,11.304,-27.381,17.206,-4.025,-0.032,5.0,60.5069,23.000008,120.21943,47.627,NaN,3.001,48.0,184.546,0 / 0,33210,2021-03-23 20:33:59:904
0.0503,0.6511,9.59277,-0.01766,0.68919,9.78239,-0.00762,-0.00138,-0.01005,-4.549,9.498,-26.929,24.904,-4.03,0.103,5.0,60.5069,23.000008,120.21943,47.627,NaN,3.001,48.0,184.546,0 / 0,33309,2021-03-23 20:34:00:003
-0.11017,0.67984,9.68378,-0.01683,0.66721,9.78391,-0.01512,-0.00567,-0.01561,-4.049,10.517,-27.93,17.513,-3.965,0.15,5.0,60.5802,23.000008,120.21943,47.627,NaN,3.001,48.0,184.546,0 / 0,33409,2021-03-23 20:34:00:103
-0.04072,0.61278,10.09095,-0.01583,0.6445,9.78544,-0.018,-0.01398,-0.01625,-5.764,9.333,-25.662,29.478,-3.768,0.093,5.0,60.5802,23.000008,120.21943,47.627,NaN,3.001,48.0,184.546,0 / 0,33510,2021-03-23 20:34:00:204
0.05509,0.41639,10.0167,-0.01731,0.62778,9.78652,-0.00325,-0.01327,-0.01375,-4.721,8.517,-24.303,25.514,-3.768,0.093,5.0,60.5802,23.000008,120.21943,47.627,NaN,3.001,48.0,184.546,0 / 0,33609,2021-03-23 20:34:00:303
0.18203,0.39243,9.61912,0.00219,0.59115,9.78882,0.00225,-0.01052,-0.01409,-6.146,7.55,-24.044,32.438,-3.456,-0.013,5.0,60.5802,23.000008,120.21943,47.627,NaN,3.001,48.0,184.546,0 / 0,33709,2021-03-23 20:34:00:403
0.13652,0.27268,9.65504,0.03755,0.56834,9.7901,4.1E-4,0.005,-0.018,-6.081,8.401,-25.628,31.939,-3.407,-0.128,5.0,60.5839,23.000008,120.21943,47.627,NaN,3.001,48.0,184.546,0 / 0,33809,2021-03-23 20:34:00:503
-0.02874,0.27747,9.87539,0.04681,0.54538,9.79136,-0.00418,0.01292,-0.0165,-5.098,8.266,-24.593,27.49,-3.188,-0.274,5.0,60.5839,23.000008,120.21943,47.627,NaN,3.001,48.0,184.546,0 / 0,33909,2021-03-23 20:34:00:603
-0.13412,0.09065,9.79635,0.02561,0.47415,9.79515,-0.0068,0.01352,-0.01357,-6.461,9.03,-25.3,29.793,-3.004,-0.237,5.0,60.5839,23.000008,120.21943,47.627,NaN,3.001,48.0,184.546,0 / 0,34008,2021-03-23 20:34:00:702
-0.09341,-0.17041,9.8227,-0.02153,0.38109,9.79922,-0.00665,0.00829,-0.01189,-5.132,8.396,-26.69,29.226,-2.227,0.126,5.0,60.4606,23.000008,120.21943,47.627,NaN,3.001,48.0,184.546,0 / 0,34109,2021-03-23 20:34:00:803
-0.07664,-0.33807,9.81791,-0.03518,0.32414,9.80123,-0.01356,0.00191,-0.00649,-6.992,8.988,-24.958,35.3,-2.227,0.126,5.0,60.4606,23.000008,120.21943,47.627,NaN,3.001,48.0,184.546,0 / 0,34209,2021-03-23 20:34:00:903
-0.03114,-0.43147,10.0167,-0.04445,0.18809,9.80475,-0.0132,-0.00259,-0.00597,-6.155,8.924,-25.128,32.824,-1.099,0.26,5.0,60.4606,23.000008,120.21943,47.627,NaN,3.001,48.0,184.546,0 / 0,34309,2021-03-23 20:34:01:003
0.07425,-0.43866,10.02388,-0.03683,0.0441,9.80648,-0.00873,-0.00111,-0.00286,-5.991,9.206,-25.778,33.357,-0.648,0.259,5.0,59.4637,23.000008,120.21943,47.627,NaN,3.001,48.0,184.546,0 / 0,34409,2021-03-23 20:34:01:103
0.01916,-0.68056,9.69097,-0.02525,-0.02311,9.80659,-0.01001,4.1E-4,-0.00208,-6.225,10.255,-27.767,31.435,0.135,0.148,5.0,59.4637,23.000008,120.21943,47.627,NaN,3.001,48.0,184.546,0 / 0,34509,2021-03-23 20:34:01:203
0.05509,-0.72128,9.73168,-0.00379,-0.15646,9.8054,-0.01065,0.00103,-0.00447,-6.408,9.328,-27.005,34.553,0.542,0.046,5.0,59.4637,23.000008,120.21943,47.627,NaN,3.001,48.0,184.546,0 / 0,34608,2021-03-23 20:34:01:302
-0.11017,-0.7117,9.85383,-0.00931,-0.27448,9.8028,-0.00607,0.00252,-0.00368,-6.078,10.198,-28.129,33.192,1.604,0.054,5.0,59.5938,23.000008,120.21943,47.627,NaN,3.001,48.0,184.546,0 / 0,34709,2021-03-23 20:34:01:403
0.01197,-0.63745,9.96161,-0.01521,-0.33052,9.80107,-0.00368,-0.00252,-3.1E-4,-4.721,10.079,-27.407,28.541,1.604,0.054,5.0,59.5938,23.000008,120.21943,47.627,NaN,3.001,48.0,184.546,0 / 0,34809,2021-03-23 20:34:01:503
0.12454,-0.71888,9.76282,-0.00347,-0.40916,9.79811,-0.00368,-0.00401,-0.00133,-7.287,8.924,-28.156,41.859,2.391,0.02,5.0,59.5938,23.000008,120.21943,47.627,NaN,3.001,48.0,184.546,0 / 0,34908,2021-03-23 20:34:01:602
0.10778,-0.69972,9.8682,0.0124,-0.4711,9.79532,-0.00152,-3.0E-4,1.0E-5,-5.874,11.615,-30.67,29.506,2.581,-0.011,5.0,59.5938,23.000008,120.21943,47.627,NaN,3.001,48.0,184.546,0 / 0,35008,2021-03-23 20:34:01:702
0.00479,-0.65422,9.98077,0.01685,-0.49019,9.79438,-8.8E-4,3.2E-4,7.6E-4,-6.936,11.527,-29.162,33.414,2.865,-0.099,5.0,58.425,23.000008,120.21943,47.627,NaN,3.001,48.0,184.546,0 / 0,35109,2021-03-23 20:34:01:803
-0.0024,-0.63985,9.97598,0.02462,-0.52937,9.79232,-0.00109,-3.4E-4,-0.00118,-7.061,9.618,-28.943,39.301,2.978,-0.118,5.0,58.425,23.000008,120.21943,47.627,NaN,3.001,48.0,184.546,0 / 0,35209,2021-03-23 20:34:01:903
-0.01916,-0.06263,9.91371,0.02,-0.56797,9.79017,-0.002,-9.5E-4,-1.6E-4,-7.445,9.422,-28.518,43.537,3.32,-0.117,5.0,58.425,23.000008,120.21943,47.627,NaN,3.001,48.0,184.546,0 / 0,35309,2021-03-23 20:34:02:003
-0.07425,0.88343,9.89455,0.01613,-0.54595,9.79143,0.00865,-6.5E-4,0.00111,-6.25,10.029,-27.814,35.405,3.32,-0.117,5.0,56.8816,23.000008,120.21943,47.627,NaN,3.001,48.0,184.546,0 / 0,35409,2021-03-23 20:34:02:103
-0.18921,1.14449,9.65265,0.01291,-0.48893,9.79445,0.01365,-0.00115,2.9E-4,-6.757,10.848,-29.114,36.12,2.858,-0.076,5.0,56.8816,23.000008,120.21943,47.627,NaN,3.001,48.0,184.546,0 / 0,35508,2021-03-23 20:34:02:202
-0.0982,0.53374,9.31494,0.00939,-0.4225,9.79754,0.00428,-0.0016,-8.0E-5,-8.096,8.832,-28.132,45.988,2.646,-0.067,5.0,56.8816,23.000008,120.21943,47.627,NaN,3.001,48.0,184.546,0 / 0,35608,2021-03-23 20:34:02:302
-0.06706,0.65829,9.8682,0.00899,-0.40537,9.79826,-0.00326,-0.00266,9.2E-4,-7.292,10.742,-28.775,35.458,2.369,-0.053,5.0,59.4539,23.000008,120.21943,47.627,NaN,3.001,48.0,184.546,0 / 0,35708,2021-03-23 20:34:02:402
-0.10299,0.83073,10.05023,0.00882,-0.37695,9.7994,-0.00347,-2.2E-4,8.0E-5,-7.339,11.438,-29.237,35.349,2.297,-0.056,5.0,59.4539,23.000008,120.21943,47.627,NaN,3.001,48.0,184.546,0 / 0,35809,2021-03-23 20:34:02:503
-0.08622,0.5553,9.73887,-0.01718,-0.14285,9.8056,-0.00311,-9.1E-4,9.0E-5,-6.053,10.017,-29.124,32.286,0.835,0.1,5.0,59.4539,23.000008,120.21943,47.627,NaN,3.001,48.0,184.546,0 / 0,35908,2021-03-23 20:34:02:602
-0.06227,0.59841,9.58798,-0.02714,-0.06669,9.80639,-2.6E-4,-0.00175,2.7E-4,-4.923,10.543,-28.092,25.488,0.835,0.1,5.0,59.0208,23.000008,120.21943,47.627,NaN,3.001,48.0,184.546,0 / 0,36009,2021-03-23 20:34:02:703
-0.12215,0.83313,9.85623,-0.04017,0.07169,9.80631,0.001,-0.00198,2.3E-4,-7.6,9.814,-29.337,38.487,-0.419,0.235,5.0,59.0208,23.000008,120.21943,47.627,NaN,3.001,48.0,184.546,0 / 0,36109,2021-03-23 20:34:02:803
-0.06467,0.67745,9.88018,-0.0526,0.21798,9.80409,-0.00211,-0.00184,1.6E-4,-8.107,8.597,-28.726,40.763,-0.877,0.276,5.0,59.0208,23.000008,120.21943,47.627,NaN,3.001,48.0,184.546,0 / 0,36209,2021-03-23 20:34:02:903
-0.11257,0.58165,9.71971,-0.05258,0.26109,9.80303,-0.00168,-0.00109,2.0E-5,-8.094,9.978,-28.495,37.191,-1.526,0.307,5.0,59.0208,23.000008,120.21943,47.627,NaN,3.001,48.0,184.546,0 / 0,36309,2021-03-23 20:34:03:003
-0.13892,0.69182,9.68857,-0.06186,0.3384,9.80061,4.9E-4,-0.00179,4.2E-4,-6.609,10.423,-29.461,33.358,-1.736,0.312,5.0,57.1961,23.000008,120.21943,47.627,NaN,3.001,48.0,184.546,0 / 0,36409,2021-03-23 20:34:03:103
-0.11496,0.7517,9.82509,-0.07175,0.41012,9.79781,-7.3E-4,-0.0022,5.9E-4,-6.768,10.83,-29.894,30.528,-2.397,0.42,5.0,57.1961,23.000008,120.21943,47.627,NaN,3.001,48.0,184.546,0 / 0,36509,2021-03-23 20:34:03:203
-0.08862,0.68463,9.68378,-0.07254,0.43866,9.79657,0.00474,-5.8E-4,-2.3E-4,-6.817,10.388,-29.5,32.775,-2.397,0.42,5.0,57.1961,23.000008,120.21943,47.627,NaN,3.001,48.0,184.546,0 / 0,36609,2021-03-23 20:34:03:303
-0.0982,0.63434,9.65504,-0.06857,0.49518,9.7939,0.00704,2.8E-4,-0.00129,-6.866,9.935,-28.261,32.264,-2.894,0.401,5.0,57.3736,23.000008,120.21943,47.627,NaN,3.001,48.0,184.546,0 / 0,36708,2021-03-23 20:34:03:402
-0.16047,0.67984,9.89216,-0.07864,0.55082,9.79085,0.00246,-8.8E-4,5.1E-4,-7.49,9.461,-28.638,34.402,-3.091,0.441,5.0,57.3736,23.000008,120.21943,47.627,NaN,3.001,48.0,184.546,0 / 0,36809,2021-03-23 20:34:03:503
-0.0958,0.74451,9.85383,-0.08208,0.56566,9.78998,7.8E-4,-8.0E-4,3.9E-4,-7.132,10.596,-27.641,29.876,-3.307,0.48,5.0,57.3736,23.000008,120.21943,47.627,NaN,3.001,48.0,184.546,0 / 0,36909,2021-03-23 20:34:03:603
-0.11975,0.62955,9.75324,-0.08252,0.58955,9.78856,-0.00123,-0.0015,-2.1E-4,-7.687,9.983,-28.75,35.183,-3.396,0.486,5.0,58.394,23.000008,120.21943,47.627,NaN,3.001,48.0,184.546,0 / 0,37009,2021-03-23 20:34:03:703
-0.12694,0.73733,9.87779,-0.08303,0.60129,9.78785,-0.00142,-0.00146,6.3E-4,-6.02,10.113,-27.406,28.166,-3.515,0.486,5.0,58.394,23.000008,120.21943,47.627,NaN,3.001,48.0,184.546,0 / 0,37108,2021-03-23 20:34:03:802
-0.02395,0.60799,9.73887,-0.08412,0.60521,9.7876,-0.00139,-0.00185,4.2E-4,-6.807,9.164,-27.069,34.205,-3.515,0.486,5.0,58.394,23.000008,120.21943,47.627,NaN,3.001,48.0,184.546,0 / 0,37209,2021-03-23 20:34:03:903
-0.07664,0.52895,9.77001,-0.0852,0.60879,9.78737,-0.0024,-0.00272,7.0E-5,-6.919,10.425,-28.122,31.729,-3.559,0.499,5.0,59.4067,23.000008,120.21943,47.627,NaN,3.001,48.0,184.546,0 / 0,37308,2021-03-23 20:34:04:002
-0.0503,0.4092,9.6766,-0.08157,0.59729,9.7881,-0.00449,-0.00363,0.00133,-5.884,9.6,-27.784,28.072,-3.529,0.493,5.0,59.4067,23.000008,120.21943,47.627,NaN,3.001,48.0,184.546,0 / 0,37408,2021-03-23 20:34:04:102
-0.07425,0.32058,9.77719,-0.07713,0.57974,9.78919,-0.0053,-0.00325,6.2E-4,-7.61,8.515,-26.455,37.957,-3.389,0.451,5.0,59.4067,23.000008,120.21943,47.627,NaN,3.001,48.0,184.546,0 / 0,37509,2021-03-23 20:34:04:203
-0.08862,0.2655,9.77959,-0.07025,0.53666,9.7917,-0.00581,-0.00357,8.2E-4,-7.036,9.81,-27.05,31.996,-3.289,0.432,5.0,59.4067,23.000008,120.21943,47.627,NaN,3.001,48.0,184.546,0 / 0,37608,2021-03-23 20:34:04:302
-0.03832,0.22238,9.75803,-0.06694,0.48345,9.7945,-0.00506,-0.00272,0.00145,-7.41,7.932,-25.417,37.872,-2.826,0.392,5.0,61.1344,23.000008,120.21943,47.627,NaN,3.001,48.0,184.546,0 / 0,37708,2021-03-23 20:34:04:402
-0.06706,0.17209,10.00472,-0.06668,0.45147,9.79603,-0.0046,-0.00295,0.00133,-6.467,9.862,-27.421,28.656,-2.826,0.392,5.0,61.1344,23.000008,120.21943,47.627,NaN,3.001,48.0,184.546,0 / 0,37809,2021-03-23 20:34:04:503
-0.05509,0.27747,9.94724,-0.06199,0.38449,9.79891,-0.00439,-0.00272,0.00171,-5.804,8.652,-26.224,31.623,-2.247,0.362,5.0,61.1344,23.000008,120.21943,47.627,NaN,3.001,48.0,184.546,0 / 0,37908,2021-03-23 20:34:04:602
-0.23232,0.36369,9.74845,-0.06459,0.35095,9.80016,0.00317,-0.00106,0.00452,-7.631,9.185,-26.458,39.378,-2.105,0.362,5.0,60.557,23.000008,120.21943,47.627,NaN,3.001,48.0,184.546,0 / 0,38009,2021-03-23 20:34:04:703
-0.11496,0.16251,9.576,-0.06764,0.35702,9.79992,0.003,-1.9E-4,0.00601,-7.65,8.516,-25.146,39.533,-2.086,0.395,5.0,60.557,23.000008,120.21943,47.627,NaN,3.001,48.0,184.546,0 / 0,38109,2021-03-23 20:34:04:803
-0.23711,0.25831,9.74606,-0.08913,0.33258,9.8006,6.0E-5,8.4E-4,0.01456,-7.436,8.031,-25.03,39.004,-2.034,0.441,5.0,60.557,23.000008,120.21943,47.627,NaN,3.001,48.0,184.546,0 / 0,38209,2021-03-23 20:34:04:903
-0.3401,0.23915,9.74366,-0.1185,0.33272,9.80029,0.00229,0.00227,0.02002,-6.977,8.134,-25.059,39.554,-1.944,0.693,5.0,59.6695,23.000008,120.21943,47.627,NaN,3.001,48.0,184.546,0 / 0,38309,2021-03-23 20:34:05:003
-0.38082,0.35172,9.99754,-0.13928,0.32132,9.8004,-7.1E-4,0.00344,0.0352,-6.298,7.035,-22.944,38.922,-1.944,0.693,5.0,59.6695,23.000008,120.21943,47.627,NaN,3.001,48.0,184.546,0 / 0,38409,2021-03-23 20:34:05:103
-0.35926,0.37806,10.02149,-0.18418,0.30518,9.80017,3.9E-4,0.00381,0.04299,-7.237,7.284,-22.915,43.951,-1.783,1.077,5.0,59.6695,23.000008,120.21943,47.627,NaN,3.001,48.0,184.546,0 / 0,38509,2021-03-23 20:34:05:203
-0.35926,0.28226,9.64786,-0.21979,0.30471,9.79945,-2.0E-5,-0.00119,0.0592,-7.24,8.822,-25.012,37.573,-1.803,1.201,5.0,59.757,23.000008,120.21943,47.627,NaN,3.001,48.0,184.546,0 / 0,38609,2021-03-23 20:34:05:303
-0.23951,0.24633,9.63109,-0.23627,0.3052,9.79905,9.4E-4,-0.00507,0.06513,-5.912,9.229,-24.732,34.047,-1.783,1.381,5.0,59.757,23.000008,120.21943,47.627,NaN,3.001,48.0,184.546,0 / 0,38709,2021-03-23 20:34:05:403
-0.44788,0.40441,9.81791,-0.23348,0.31526,9.7988,0.00354,0.00292,0.0822,-6.786,7.491,-24.241,44.286,-1.828,1.355,5.0,59.757,23.000008,120.21943,47.627,NaN,3.001,48.0,184.546,0 / 0,38808,2021-03-23 20:34:05:502
-0.37842,0.5074,9.89216,-0.26417,0.3351,9.79736,0.00405,9.3E-4,0.09467,-6.872,9.933,-25.204,35.282,-1.958,1.545,5.0,59.757,23.000008,120.21943,47.627,NaN,3.001,48.0,184.546,0 / 0,38909,2021-03-23 20:34:05:603
-0.25388,0.37567,9.72929,-0.26548,0.34633,9.79694,0.00236,0.00282,0.10853,-7.413,8.697,-26.312,37.935,-1.958,1.545,5.0,58.5101,23.000008,120.21943,47.627,NaN,3.001,48.0,184.546,0 / 0,39008,2021-03-23 20:34:05:702
-0.17005,0.50261,9.75803,-0.26502,0.3777,9.79579,0.0025,-0.0019,0.11577,-7.666,9.817,-25.384,38.39,-2.207,1.55,5.0,58.5101,23.000008,120.21943,47.627,NaN,3.001,48.0,184.546,0 / 0,39109,2021-03-23 20:34:05:803
-0.19161,0.58883,9.73408,-0.24794,0.41883,9.79456,0.00157,0.00315,0.13017,-7.99,10.515,-26.166,35.779,-2.313,1.484,5.0,58.5101,23.000008,120.21943,47.627,NaN,3.001,48.0,184.546,0 / 0,39209,2021-03-23 20:34:05:903
-0.14131,0.60799,9.9664,-0.2396,0.4365,9.794,-2.2E-4,0.00193,0.13598,-7.757,10.939,-26.057,35.425,-2.551,1.401,5.0,57.6607,23.000008,120.21943,47.627,NaN,3.001,48.0,184.546,0 / 0,39309,2021-03-23 20:34:06:003
-0.11975,0.51219,9.6263,-0.20782,0.46115,9.7936,9.1E-4,0.0046,0.14223,-7.316,10.896,-26.191,31.939,-2.622,1.297,5.0,57.6607,23.000008,120.21943,47.627,NaN,3.001,48.0,184.546,0 / 0,39409,2021-03-23 20:34:06:103
-0.28022,0.60799,9.75803,-0.18605,0.48524,9.79287,0.00115,0.00532,0.14787,-7.883,11.235,-24.63,34.747,-2.836,1.088,5.0,57.6607,23.000008,120.21943,47.627,NaN,3.001,48.0,184.546,0 / 0,39509,2021-03-23 20:34:06:203
-0.27064,0.64392,9.81551,-0.18995,0.51957,9.79103,3.5E-4,0.00784,0.16445,-6.882,11.475,-25.833,31.418,-2.836,1.088,5.0,58.2774,23.000008,120.21943,47.627,NaN,3.001,48.0,184.546,0 / 0,39610,2021-03-23 20:34:06:304
0.02156,0.56009,9.92808,-0.18958,0.52996,9.79048,-0.00113,0.0024,0.17027,-8.157,12.153,-26.675,32.389,-3.098,1.109,5.0,58.2774,23.000008,120.21943,47.627,NaN,3.001,48.0,184.546,0 / 0,39710,2021-03-23 20:34:06:404
0.15568,0.47147,9.71492,-0.14693,0.54447,9.79042,-0.00216,0.00191,0.1747,-9.449,11.272,-26.82,37.262,-3.159,1.023,5.0,58.2774,23.000008,120.21943,47.627,NaN,3.001,48.0,184.546,0 / 0,39809,2021-03-23 20:34:06:503
-0.01198,0.60081,9.6766,-0.09056,0.54344,9.79116,-0.00267,0.00197,0.17583,-9.0,12.402,-26.182,34.759,-3.158,0.673,5.0,61.3624,23.000008,120.21943,47.627,NaN,3.001,48.0,184.546,0 / 0,39909,2021-03-23 20:34:06:603
-0.06946,0.59362,9.8203,-0.06752,0.54786,9.7911,-0.00328,0.00815,0.1798,-8.7,13.229,-27.039,32.584,-3.177,0.53,5.0,61.3624,23.000008,120.21943,47.627,NaN,3.001,48.0,184.546,0 / 0,40009,2021-03-23 20:34:06:703
0.0982,0.57925,9.77001,-0.05161,0.55571,9.79076,-0.00378,0.00481,0.1838,-10.35,13.247,-26.836,34.96,-3.249,0.302,5.0,61.3624,23.000008,120.21943,47.627,NaN,3.001,48.0,184.546,0 / 0,40109,2021-03-23 20:34:06:803
0.10059,0.48105,9.61193,-0.01581,0.55611,9.79086,-0.00206,0.0041,0.18196,-8.825,13.141,-25.743,32.306,-3.249,0.302,5.0,61.3624,23.000008,120.21943,47.627,NaN,3.001,48.0,184.546,0 / 0,40209,2021-03-23 20:34:06:903
0.26346,0.53614,9.6766,2.4E-4,0.55389,9.791,-0.00247,0.00602,0.18286,-9.933,13.693,-27.527,32.727,-3.238,-0.001,5.0,63.2273,23.000008,120.21943,47.627,NaN,3.001,48.0,184.546,0 / 0,40308,2021-03-23 20:34:07:002
0.05269,0.6511,9.75563,0.04145,0.5634,9.79037,-0.00226,0.01825,0.18702,-10.26,11.643,-25.362,36.595,-3.241,-0.123,5.0,63.2273,23.000008,120.21943,47.627,NaN,3.001,48.0,184.546,0 / 0,40409,2021-03-23 20:34:07:103
0.10059,0.67984,9.88257,0.0458,0.57048,9.78994,-0.00321,0.01982,0.18699,-9.848,14.026,-26.316,32.524,-3.335,-0.268,5.0,63.2273,23.000008,120.21943,47.627,NaN,3.001,48.0,184.546,0 / 0,40508,2021-03-23 20:34:07:202
0.18921,0.71817,9.9209,0.05892,0.57548,9.78957,-0.00162,0.01806,0.18452,-10.459,14.474,-28.341,32.224,-3.339,-0.328,5.0,63.5109,23.000008,120.21943,47.627,NaN,3.001,48.0,184.546,0 / 0,40608,2021-03-23 20:34:07:302
0.15328,0.78044,9.49218,0.06633,0.59661,9.78826,0.00281,0.02056,0.18379,-9.829,15.078,-29.325,30.353,-3.488,-0.388,5.0,63.5109,23.000008,120.21943,47.627,NaN,3.001,48.0,184.546,0 / 0,40712,2021-03-23 20:34:07:406
0.08622,0.74451,9.54008,0.07085,0.63651,9.78572,1.2E-4,0.01984,0.18094,-10.368,14.598,-28.59,30.353,-3.488,-0.388,5.0,63.5109,23.000008,120.21943,47.627,NaN,3.001,48.0,184.546,0 / 0,40809,2021-03-23 20:34:07:503
-0.00719,0.59123,9.9209,0.07063,0.65049,9.7848,-0.00188,0.01821,0.17852,-10.102,16.153,-30.805,28.472,-3.803,-0.414,5.0,61.7778,23.000008,120.21943,47.627,NaN,3.001,48.0,184.546,0 / 0,40909,2021-03-23 20:34:07:603
-0.0479,0.51219,9.79156,0.05103,0.64131,9.78553,-0.00264,0.0171,0.18444,-9.146,18.202,-31.234,23.728,-3.819,-0.362,5.0,61.7778,23.000008,120.21943,47.627,NaN,3.001,48.0,184.546,0 / 0,41009,2021-03-23 20:34:07:703
0.06706,0.52895,9.7724,0.02805,0.61651,9.78721,-0.00143,0.01209,0.1873,-10.967,19.374,-32.175,27.385,-3.704,-0.19,5.0,61.7778,23.000008,120.21943,47.627,NaN,3.001,48.0,184.546,0 / 0,41108,2021-03-23 20:34:07:802
0.02874,0.58165,9.6766,0.03264,0.60779,9.78774,0.0014,0.00995,0.18673,-10.012,18.315,-31.708,26.38,-3.604,-0.164,5.0,62.4414,23.000008,120.21943,47.627,NaN,3.001,48.0,184.546,0 / 0,41210,2021-03-23 20:34:07:904
-0.04072,0.58404,9.87779,0.03151,0.60205,9.7881,5.0E-5,0.01083,0.18997,-10.39,18.778,-31.927,25.307,-3.52,-0.184,5.0,62.4414,23.000008,120.21943,47.627,NaN,3.001,48.0,184.546,0 / 0,41309,2021-03-23 20:34:08:003
0.0503,0.57925,9.93287,0.02912,0.59016,9.78883,-0.00108,0.0096,0.19514,-9.839,20.178,-32.126,24.291,-3.52,-0.184,5.0,62.4414,23.000008,120.21943,47.627,NaN,3.001,48.0,184.546,0 / 0,41409,2021-03-23 20:34:08:103
0.01197,0.47866,9.55205,0.02222,0.58295,9.78928,-0.0012,0.00863,0.19712,-10.856,20.32,-34.274,26.417,-3.408,-0.13,5.0,62.4414,23.000008,120.21943,47.627,NaN,3.001,48.0,184.546,0 / 0,41509,2021-03-23 20:34:08:203
0.01197,0.43315,9.6287,0.01655,0.57191,9.78994,-0.00475,8.1E-4,0.20291,-10.769,20.219,-35.074,26.384,-3.363,-0.126,5.0,59.9683,23.000008,120.21943,47.627,NaN,3.001,48.0,184.546,0 / 0,41608,2021-03-23 20:34:08:302
0.00958,0.57207,9.97359,0.02315,0.55135,9.79111,-0.0059,-7.0E-5,0.20475,-9.79,22.792,-34.937,21.728,-3.279,-0.083,5.0,59.9683,23.000008,120.21943,47.627,NaN,3.001,48.0,184.546,0 / 0,41708,2021-03-23 20:34:08:402
0.0958,0.57925,9.95682,0.03132,0.54296,9.79156,-0.00294,-6.1E-4,0.21058,-10.392,21.681,-33.913,22.559,-3.223,-0.135,5.0,59.9683,23.000008,120.21943,47.627,NaN,3.001,48.0,184.546,0 / 0,41808,2021-03-23 20:34:08:502
0.15568,0.49063,9.64067,0.06335,0.52655,9.7923,-0.001,0.00176,0.21184,-10.421,22.499,-34.558,22.282,-3.078,-0.371,5.0,61.2006,23.000008,120.21943,47.627,NaN,3.001,48.0,184.546,0 / 0,41909,2021-03-23 20:34:08:603
0.08622,0.47147,9.69097,0.07412,0.52211,9.79246,-0.00289,0.00724,0.21506,-11.135,24.174,-36.203,22.508,-3.052,-0.434,5.0,61.2006,23.000008,120.21943,47.627,NaN,3.001,48.0,184.546,0 / 0,42008,2021-03-23 20:34:08:702
0.15089,0.47387,9.73408,0.09177,0.51603,9.79263,-0.00482,0.00836,0.21871,-9.959,25.391,-36.163,19.782,-3.016,-0.537,5.0,61.2006,23.000008,120.21943,47.627,NaN,3.001,48.0,184.546,0 / 0,42108,2021-03-23 20:34:08:802
0.20119,0.46429,9.69336,0.10501,0.49996,9.79333,-0.00684,0.01625,0.22503,-11.474,25.608,-35.726,20.928,-2.969,-0.564,5.0,60.5252,23.000008,120.21943,47.627,NaN,3.001,48.0,184.546,0 / 0,42209,2021-03-23 20:34:08:903
0.15568,0.43794,9.80114,0.11205,0.48418,9.79405,-0.0061,0.01778,0.22671,-10.887,27.649,-38.444,19.507,-2.899,-0.618,5.0,60.5252,23.000008,120.21943,47.627,NaN,3.001,48.0,184.546,0 / 0,42308,2021-03-23 20:34:09:002
0.21556,0.60799,9.81312,0.12012,0.47532,9.79439,-0.00712,0.02063,0.22852,-11.123,27.379,-38.228,20.113,-2.83,-0.655,5.0,60.5252,23.000008,120.21943,47.627,NaN,3.001,48.0,184.546,0 / 0,42408,2021-03-23 20:34:09:102
0.12694,0.5553,9.85383,0.11904,0.47168,9.79458,-0.00679,0.02156,0.23343,-11.462,27.768,-36.593,19.523,-2.757,-0.696,5.0,61.8093,23.000008,120.21943,47.627,NaN,3.001,48.0,184.546,0 / 0,42510,2021-03-23 20:34:09:204
0.28501,0.38285,9.71971,0.10093,0.47308,9.79471,-0.01007,0.02306,0.23857,-10.894,28.527,-38.829,18.839,-2.757,-0.696,5.0,61.8093,23.000008,120.21943,47.627,NaN,3.001,48.0,184.546,0 / 0,42609,2021-03-23 20:34:09:303
0.21077,0.37567,9.66462,0.1053,0.45993,9.79529,-0.00969,0.02498,0.23902,-9.56,29.948,-40.154,16.724,-2.688,-0.616,5.0,61.8093,23.000008,120.21943,47.627,NaN,3.001,48.0,184.546,0 / 0,42709,2021-03-23 20:34:09:403
0.11257,0.5074,9.9688,0.10944,0.44933,9.79574,-0.006,0.02566,0.24465,-9.176,29.554,-38.769,15.104,-2.636,-0.626,5.0,61.8093,23.000008,120.21943,47.627,NaN,3.001,48.0,184.546,0 / 0,42809,2021-03-23 20:34:09:503
0.07185,0.57207,9.83707,0.09227,0.44827,9.79596,-0.00532,0.02586,0.24611,-9.125,31.644,-39.699,14.23,-2.611,-0.615,5.0,62.9919,23.000008,120.21943,47.627,NaN,3.001,48.0,184.546,0 / 0,42908,2021-03-23 20:34:09:602
0.17484,0.36848,9.69097,0.08608,0.45428,9.79574,-0.00377,0.01852,0.24804,-9.425,31.043,-40.127,14.729,-2.62,-0.54,5.0,62.9919,23.000008,120.21943,47.627,NaN,3.001,48.0,184.546,0 / 0,43009,2021-03-23 20:34:09:703
0.23711,0.43794,9.67181,0.08294,0.46104,9.79546,-0.00313,0.01155,0.25232,-9.782,32.655,-40.048,15.495,-2.695,-0.485,5.0,62.9919,23.000008,120.21943,47.627,NaN,3.001,48.0,184.546,0 / 0,43109,2021-03-23 20:34:09:803
0.20119,0.54332,9.90413,0.106,0.47102,9.79476,-0.0037,0.01089,0.25315,-9.001,34.471,-41.898,13.523,-2.695,-0.485,5.0,60.2944,23.000008,120.21943,47.627,NaN,3.001,48.0,184.546,0 / 0,43208,2021-03-23 20:34:09:902
0.27064,0.63194,9.97598,0.1172,0.47156,9.7946,-0.00177,0.01115,0.25314,-8.184,35.4,-41.643,11.459,-2.756,-0.686,5.0,60.2944,23.000008,120.21943,47.627,NaN,3.001,48.0,184.546,0 / 0,43309,2021-03-23 20:34:10:003
0.194,0.54332,9.68857,0.1572,0.49587,9.79284,-0.00318,0.0173,0.25228,-6.775,35.047,-41.37,9.855,-2.815,-0.805,5.0,60.2944,23.000008,120.21943,47.627,NaN,3.001,48.0,184.546,0 / 0,43409,2021-03-23 20:34:10:103
0.26825,0.64871,9.64067,0.16609,0.51347,9.79179,-0.00574,0.01537,0.25307,-6.564,35.97,-40.236,9.448,-2.973,-0.96,5.0,61.0662,23.000008,120.21943,47.627,NaN,3.001,48.0,184.546,0 / 0,43509,2021-03-23 20:34:10:203
0.26106,0.73014,9.85623,0.17306,0.52726,9.79094,-0.00219,0.01488,0.24887,-7.841,38.201,-43.734,10.212,-3.001,-0.972,5.0,61.0662,23.000008,120.21943,47.627,NaN,3.001,48.0,184.546,0 / 0,43609,2021-03-23 20:34:10:303
0.53171,0.77325,9.61193,0.1947,0.55716,9.78887,-0.00193,0.01789,0.24667,-7.292,37.558,-42.935,8.649,-3.257,-1.139,5.0,61.0662,23.000008,120.21943,47.627,NaN,3.001,48.0,184.546,0 / 0,43714,2021-03-23 20:34:10:408
0.30417,0.73972,9.66462,0.22567,0.59273,9.78612,9.2E-4,0.02126,0.2416,-6.777,37.311,-41.928,8.906,-3.257,-1.139,5.0,63.1165,23.000008,120.21943,47.627,NaN,3.001,48.0,184.546,0 / 0,43809,2021-03-23 20:34:10:503
0.17724,0.91696,9.8682,0.23512,0.61049,9.78481,0.00286,0.02267,0.23694,-5.6,39.015,-42.926,6.805,-3.569,-1.377,5.0,63.1165,23.000008,120.21943,47.627,NaN,3.001,48.0,184.546,0 / 0,43909,2021-03-23 20:34:10:603
0.24669,0.86666,9.78917,0.21869,0.65908,9.78203,0.00312,0.01237,0.22974,-5.546,40.32,-43.075,6.707,-3.695,-1.303,5.0,63.1165,23.000008,120.21943,47.627,NaN,3.001,48.0,184.546,0 / 0,44009,2021-03-23 20:34:10:703
0.39758,0.7493,9.73408,0.23366,0.70565,9.77844,0.00142,0.01458,0.22597,-4.1,39.433,-42.835,4.114,-4.019,-1.311,5.0,63.1165,23.000008,120.21943,47.627,NaN,3.001,48.0,184.546,0 / 0,44109,2021-03-23 20:34:10:803
0.32813,0.8451,9.71971,0.24127,0.71633,9.77748,0.00175,0.01256,0.21963,-4.976,40.082,-43.815,5.237,-4.126,-1.369,5.0,60.5265,23.000008,120.21943,47.627,NaN,3.001,48.0,184.546,0 / 0,44208,2021-03-23 20:34:10:902
0.17963,0.93133,9.86102,0.25622,0.74173,9.7752,0.0024,0.01753,0.21524,-4.143,41.557,-44.529,3.562,-4.338,-1.501,5.0,60.5265,23.000008,120.21943,47.627,NaN,3.001,48.0,184.546,0 / 0,44309,2021-03-23 20:34:11:003
0.27304,0.90259,9.81072,0.25531,0.74573,9.77492,0.00426,0.01462,0.20799,-4.916,39.398,-42.019,5.296,-4.361,-1.496,5.0,60.5265,23.000008,120.21943,47.627,NaN,3.001,48.0,184.546,0 / 0,44409,2021-03-23 20:34:11:103
0.17005,0.84031,9.60235,0.25081,0.77084,9.77309,0.00349,0.01585,0.20488,-3.771,41.406,-43.616,3.703,-4.508,-1.47,5.0,63.668,23.000008,120.21943,47.627,NaN,3.001,48.0,184.546,0 / 0,44509,2021-03-23 20:34:11:203
0.26585,0.84031,9.65744,0.23553,0.78846,9.77206,-8.2E-4,0.01477,0.20019,-2.461,42.955,-45.145,1.085,-4.555,-1.426,5.0,63.668,23.000008,120.21943,47.627,NaN,3.001,48.0,184.546,0 / 0,44610,2021-03-23 20:34:11:304
0.2419,0.96486,9.9185,0.23721,0.80626,9.77057,5.9E-4,0.01608,0.19604,-3.567,42.619,-45.362,3.582,-4.659,-1.384,5.0,63.668,23.000008,120.21943,47.627,NaN,3.001,48.0,184.546,0 / 0,44710,2021-03-23 20:34:11:404
0.22514,0.98881,9.79875,0.24202,0.81698,9.76956,-4.9E-4,0.01917,0.18884,-2.292,43.399,-46.516,1.053,-4.716,-1.391,5.0,61.2162,23.000008,120.21943,47.627,NaN,3.001,48.0,184.546,0 / 0,44808,2021-03-23 20:34:11:502
0.23951,0.79241,9.6742,0.23471,0.8367,9.76807,-0.00217,0.02028,0.18645,-1.739,44.027,-46.668,1.042,-4.894,-1.376,5.0,61.2162,23.000008,120.21943,47.627,NaN,3.001,48.0,184.546,0 / 0,44908,2021-03-23 20:34:11:602
0.22753,0.78044,9.73168,0.21705,0.8268,9.76932,-0.00366,0.01132,0.17656,-0.568,43.058,-46.978,359.919,-4.873,-1.3,5.0,61.2162,23.000008,120.21943,47.627,NaN,3.001,48.0,184.546,0 / 0,45009,2021-03-23 20:34:11:703
0.14849,0.6511,9.78198,0.21894,0.81602,9.77019,-0.00316,0.00909,0.16904,-1.302,44.708,-46.448,359.964,-4.773,-1.284,5.0,60.2398,23.000008,120.21943,47.627,NaN,3.001,48.0,184.546,0 / 0,45108,2021-03-23 20:34:11:802
0.388,0.57925,9.95203,0.22817,0.76396,9.77418,-0.00413,0.0091,0.16317,0.425,46.895,-48.304,358.741,-4.653,-1.331,5.0,60.2398,23.000008,120.21943,47.627,NaN,3.001,48.0,184.546,0 / 0,45209,2021-03-23 20:34:11:903
0.17963,0.62476,9.66223,0.25204,0.70592,9.77796,-0.00344,0.01209,0.15537,-0.574,47.132,-46.797,359.824,-4.297,-1.407,5.0,60.2398,23.000008,120.21943,47.627,NaN,3.001,48.0,184.546,0 / 0,45308,2021-03-23 20:34:12:002
0.22993,0.53853,9.56882,0.24939,0.68986,9.77918,-0.00301,0.00991,0.14355,-0.063,45.31,-47.673,358.534,-4.128,-1.477,5.0,60.2398,23.000008,120.21943,47.627,NaN,3.001,48.0,184.546,0 / 0,45409,2021-03-23 20:34:12:103
0.194,0.58883,9.74366,0.24618,0.66519,9.78097,-0.00285,0.00979,0.14055,0.326,46.501,-47.965,358.62,-3.889,-1.442,5.0,62.6935,23.000008,120.21943,47.627,NaN,3.001,48.0,184.546,0 / 0,45509,2021-03-23 20:34:12:203
0.22514,0.69182,9.8682,0.24267,0.6527,9.7819,-0.0022,-0.00273,0.12749,0.164,46.869,-46.931,358.714,-3.846,-1.37,5.0,62.6935,23.000008,120.21943,47.627,NaN,3.001,48.0,184.546,0 / 0,45609,2021-03-23 20:34:12:303
0.28262,0.78523,9.90892,0.25818,0.6494,9.78172,-0.00152,-0.00331,0.11697,0.999,47.957,-49.168,357.433,-3.797,-1.512,5.0,62.6935,23.000008,120.21943,47.627,NaN,3.001,48.0,184.546,0 / 0,45709,2021-03-23 20:34:12:403
0.40237,0.74451,9.70055,0.29132,0.66413,9.7798,-9.3E-4,0.00153,0.10337,1.315,49.323,-49.335,357.355,-3.856,-1.65,5.0,59.4211,23.000008,120.21943,47.627,NaN,3.001,48.0,184.546,0 / 0,45809,2021-03-23 20:34:12:503
0.0958,0.82834,9.58558,0.29277,0.68779,9.77812,-0.00174,0.00398,0.09791,1.296,50.138,-49.291,357.311,-3.932,-1.755,5.0,59.4211,23.000008,120.21943,47.627,NaN,3.001,48.0,184.546,0 / 0,45909,2021-03-23 20:34:12:603
0.23232,0.85229,9.70773,0.28037,0.70581,9.7772,-0.00186,0.00204,0.08563,0.614,49.944,-50.255,357.323,-4.022,-1.715,5.0,59.4211,23.000008,120.21943,47.627,NaN,3.001,48.0,184.546,0 / 0,46008,2021-03-23 20:34:12:702
0.15089,0.87624,9.74126,0.26676,0.74078,9.77499,-0.00156,0.00113,0.08129,2.042,50.05,-49.495,356.436,-4.332,-1.563,5.0,60.7343,23.000008,120.21943,47.627,NaN,3.001,48.0,184.546,0 / 0,46109,2021-03-23 20:34:12:803
0.20598,0.66547,9.72211,0.26421,0.78076,9.77195,-0.00139,0.00338,0.07032,3.584,52.024,-48.993,354.557,-4.436,-1.522,5.0,60.7343,23.000008,120.21943,47.627,NaN,3.001,48.0,184.546,0 / 0,46212,2021-03-23 20:34:12:906
0.10059,0.76607,9.95682,0.25958,0.77186,9.77278,-0.0044,0.00587,0.06603,2.446,52.369,-51.576,356.541,-4.514,-1.521,5.0,60.7343,23.000008,120.21943,47.627,NaN,3.001,48.0,184.546,0 / 0,46309,2021-03-23 20:34:13:003
0.20119,0.67984,9.66941,0.24788,0.75284,9.77457,-0.00141,0.00861,0.05665,2.854,51.942,-49.758,355.586,-4.407,-1.489,5.0,63.1047,23.000008,120.21943,47.627,NaN,3.001,48.0,184.546,0 / 0,46409,2021-03-23 20:34:13:103
0.13891,0.79002,9.59277,0.23581,0.73911,9.77591,-7.2E-4,0.00892,0.05128,1.672,53.585,-50.976,356.769,-4.359,-1.414,5.0,63.1047,23.000008,120.21943,47.627,NaN,3.001,48.0,184.546,0 / 0,46508,2021-03-23 20:34:13:202
0.12454,0.85708,9.68139,0.22312,0.75098,9.77531,0.00153,0.0095,0.04296,2.827,53.286,-52.23,355.715,-4.322,-1.382,5.0,63.1047,23.000008,120.21943,47.627,NaN,3.001,48.0,184.546,0 / 0,46609,2021-03-23 20:34:13:303
0.05748,0.92893,9.91132,0.20138,0.77292,9.77407,0.00192,0.00815,0.03887,3.167,52.698,-50.657,355.925,-4.521,-1.18,5.0,63.1047,23.000008,120.21943,47.627,NaN,3.001,48.0,184.546,0 / 0,46708,2021-03-23 20:34:13:402
0.37603,0.94091,9.83228,0.19073,0.79379,9.77261,0.00322,0.00249,0.02409,4.183,53.546,-51.212,355.079,-4.577,-1.106,5.0,60.2634,23.000008,120.21943,47.627,NaN,3.001,48.0,184.546,0 / 0,46809,2021-03-23 20:34:13:503
0.23232,1.1876,9.71492,0.1916,0.80982,9.77128,0.00449,0.00473,0.01864,3.341,54.178,-50.856,356.057,-4.737,-1.123,5.0,60.2634,23.000008,120.21943,47.627,NaN,3.001,48.0,184.546,0 / 0,46908,2021-03-23 20:34:13:602
0.05988,1.5756,9.58798,0.16406,0.8692,9.76668,0.00737,0.00339,0.0111,3.512,51.618,-49.557,355.012,-4.864,-1.023,5.0,60.2634,23.000008,120.21943,47.627,NaN,3.001,48.0,184.546,0 / 0,47009,2021-03-23 20:34:13:703
-0.06946,1.578,9.71013,0.14333,0.99902,9.75458,0.00749,0.00473,0.00387,3.153,54.972,-51.243,356.329,-5.477,-0.927,5.0,60.7239,23.000008,120.21943,47.627,NaN,3.001,48.0,184.546,0 / 0,47109,2021-03-23 20:34:13:803
-0.17245,1.83427,9.75085,0.12895,1.06216,9.74811,0.00281,0.00312,-0.00306,2.769,54.49,-52.863,356.343,-5.847,-0.842,5.0,60.7239,23.000008,120.21943,47.627,NaN,3.001,48.0,184.546,0 / 0,47209,2021-03-23 20:34:13:903
-0.19879,1.67141,9.5305,0.07017,1.18665,9.73434,0.00138,0.0016,-0.00161,2.852,55.522,-52.717,356.878,-6.95,-0.413,5.0,60.7239,23.000008,120.21943,47.627,NaN,3.001,48.0,184.546,0 / 0,47309,2021-03-23 20:34:14:003
-0.18203,1.79595,9.54966,0.02033,1.30518,9.71939,0.00144,-0.00415,-0.00372,3.016,55.588,-51.185,357.02,-7.29,-0.256,5.0,60.8997,23.000008,120.21943,47.627,NaN,3.001,48.0,184.546,0 / 0,47409,2021-03-23 20:34:14:103
-0.21077,1.82469,9.80833,-0.00102,1.35913,9.71201,6.0E-4,-0.00454,-0.00465,3.557,54.931,-54.06,356.311,-7.966,0.006,5.0,60.8997,23.000008,120.21943,47.627,NaN,3.001,48.0,184.546,0 / 0,47509,2021-03-23 20:34:14:203
-0.17245,2.00193,9.78917,-0.0359,1.45981,9.69732,0.0025,-9.2E-4,-2.4E-4,3.139,55.034,-51.559,357.323,-8.265,0.117,5.0,60.8997,23.000008,120.21943,47.627,NaN,3.001,48.0,184.546,0 / 0,47609,2021-03-23 20:34:14:303
-0.18682,2.16479,9.55924,-0.06663,1.58005,9.67829,0.00589,3.5E-4,9.6E-4,2.643,54.576,-51.556,357.5,-8.899,0.304,5.0,62.3244,23.000008,120.21943,47.627,NaN,3.001,48.0,184.546,0 / 0,47709,2021-03-23 20:34:14:403
0.04072,0.09065,9.37721,-0.08348,1.64692,9.66701,-0.00185,-0.00134,-6.8E-4,4.286,55.775,-53.489,356.74,-9.272,0.394,5.0,62.3244,23.000008,120.21943,47.627,NaN,3.001,48.0,184.546,0 / 0,47809,2021-03-23 20:34:14:503
-0.03114,0.41639,10.14364,-0.08127,1.56308,9.68094,-0.01064,-0.00355,-6.0E-4,2.979,55.355,-53.686,357.682,-9.171,0.481,5.0,62.3244,23.000008,120.21943,47.627,NaN,3.001,48.0,184.546,0 / 0,47909,2021-03-23 20:34:14:603
-0.05269,1.21634,10.03346,-0.07803,1.51481,9.68864,-0.00484,-0.00146,8.2E-4,2.683,54.662,-52.268,357.638,-8.997,0.466,5.0,62.3244,23.000008,120.21943,47.627,NaN,3.001,48.0,184.546,0 / 0,48009,2021-03-23 20:34:14:703
-0.04072,0.73254,9.45865,-0.07683,1.5056,9.69008,-6.4E-4,-7.1E-4,4.6E-4,2.6,54.845,-52.142,357.623,-8.831,0.454,5.0,62.6408,23.000008,120.21943,47.627,NaN,3.001,48.0,184.546,0 / 0,48109,2021-03-23 20:34:14:803
-0.08862,0.75409,9.6263,-0.07603,1.48361,9.69348,-0.00263,-6.0E-5,-7.0E-5,2.682,54.694,-53.219,357.633,-8.783,0.452,5.0,62.6408,23.000008,120.21943,47.627,NaN,3.001,48.0,184.546,0 / 0,48209,2021-03-23 20:34:14:903
-0.1461,0.97444,10.05263,-0.07115,1.32202,9.71687,-5.5E-4,-8.9E-4,9.0E-4,3.221,55.448,-53.557,357.601,-8.108,0.424,5.0,62.6408,23.000008,120.21943,47.627,NaN,3.001,48.0,184.546,0 / 0,48309,2021-03-23 20:34:15:003
0.03114,0.77804,9.84665,-0.07099,1.2725,9.72348,0.00428,-0.00262,-1.3E-4,1.732,55.499,-52.791,358.502,-7.748,0.42,5.0,61.2712,23.000008,120.21943,47.627,NaN,3.001,48.0,184.546,0 / 0,48409,2021-03-23 20:34:15:103
0.08143,0.75888,9.69576,-0.07162,1.19731,9.73302,0.00149,-0.00269,1.0E-4,3.145,55.377,-52.327,357.541,-7.013,0.422,5.0,61.2712,23.000008,120.21943,47.627,NaN,3.001,48.0,184.546,0 / 0,48508,2021-03-23 20:34:15:202
-0.10778,0.78044,9.68378,-0.06253,1.0957,9.74505,7.6E-4,-4.8E-4,2.7E-4,3.233,57.364,-54.999,357.598,-6.729,0.369,5.0,61.2712,23.000008,120.21943,47.627,NaN,3.001,48.0,184.546,0 / 0,48608,2021-03-23 20:34:15:302
-0.05988,0.79481,9.66223,-0.06305,1.06915,9.74799,0.00107,-0.00202,2.7E-4,2.997,55.668,-53.556,357.534,-6.259,0.371,5.0,61.1265,23.000008,120.21943,47.627,NaN,3.001,48.0,184.546,0 / 0,48709,2021-03-23 20:34:15:403
-0.23472,0.87385,9.79156,-0.06432,1.02857,9.75235,-0.001,-0.00213,5.5E-4,2.979,54.812,-52.0,357.479,-6.155,0.382,5.0,61.1265,23.000008,120.21943,47.627,NaN,3.001,48.0,184.546,0 / 0,48809,2021-03-23 20:34:15:503
-0.04072,0.75649,9.68139,-0.0565,0.97635,9.75776,1.8E-4,-0.00208,-2.2E-4,3.175,55.101,-52.068,357.399,-5.797,0.304,5.0,61.1265,23.000008,120.21943,47.627,NaN,3.001,48.0,184.546,0 / 0,48908,2021-03-23 20:34:15:602
-0.02395,0.80199,9.94964,-0.05897,0.96122,9.75925,-6.2E-4,-0.00326,-0.00121,1.896,55.005,-52.621,358.384,-5.714,0.332,5.0,62.3706,23.000008,120.21943,47.627,NaN,3.001,48.0,184.546,0 / 0,49009,2021-03-23 20:34:15:703
-0.17724,0.83552,9.8706,-0.04845,0.9281,9.76251,-5.7E-4,-0.00336,-0.00208,2.762,53.622,-51.579,357.325,-5.431,0.284,5.0,62.3706,23.000008,120.21943,47.627,NaN,3.001,48.0,184.546,0 / 0,49109,2021-03-23 20:34:15:803
-0.0958,0.74691,9.63109,-0.04856,0.91066,9.76416,9.7E-4,-0.00484,-0.00326,2.263,53.336,-50.314,358.283,-5.399,0.318,5.0,62.3706,23.000008,120.21943,47.627,NaN,3.001,48.0,184.546,0 / 0,49209,2021-03-23 20:34:15:903
0.04311,0.75649,9.64786,-0.04756,0.90185,9.76498,0.00156,-0.00517,-0.00373,2.407,52.935,-48.723,358.239,-5.277,0.279,5.0,62.3706,23.000008,120.21943,47.627,NaN,3.001,48.0,184.546,0 / 0,49309,2021-03-23 20:34:16:003
0.07185,0.76607,9.6742,-0.03577,0.88382,9.76668,-3.0E-4,-0.00609,-0.00486,2.825,52.511,-49.734,357.226,-5.246,0.253,5.0,60.0896,23.000008,120.21943,47.627,NaN,3.001,48.0,184.546,0 / 0,49409,2021-03-23 20:34:16:103
-0.10059,0.92414,9.74366,-0.0267,0.86822,9.76811,-5.1E-4,-0.00282,-0.00437,2.097,52.019,-49.414,358.125,-5.118,0.189,5.0,60.0896,23.000008,120.21943,47.627,NaN,3.001,48.0,184.546,0 / 0,49509,2021-03-23 20:34:16:203
0.00718,0.96486,9.73648,-0.02616,0.87143,9.76782,-0.00147,0.00228,-0.00841,3.104,52.587,-50.054,357.135,-5.079,0.157,5.0,60.0896,23.000008,120.21943,47.627,NaN,3.001,48.0,184.546,0 / 0,49609,2021-03-23 20:34:16:303
-0.09341,1.18042,9.57361,-0.02608,0.89293,9.76588,-0.00324,0.00168,-0.00857,2.571,51.976,-48.954,357.08,-5.224,0.153,5.0,63.5791,23.000008,120.21943,47.627,NaN,3.001,48.0,184.546,0 / 0,49709,2021-03-23 20:34:16:403
0.07904,1.34568,9.60954,-0.01971,0.96269,9.75926,0.00257,-0.00437,-0.01585,2.324,53.223,-49.263,358.13,-5.448,0.146,5.0,63.5791,23.000008,120.21943,47.627,NaN,3.001,48.0,184.546,0 / 0,49809,2021-03-23 20:34:16:503
0.15568,1.56123,9.81551,-0.00969,1.00471,9.75504,0.00519,-0.00706,-0.02345,2.84,52.15,-47.955,357.016,-5.88,0.057,5.0,63.5791,23.000008,120.21943,47.627,NaN,3.001,48.0,184.546,0 / 0,49909,2021-03-23 20:34:16:603
0.26106,1.54447,9.86581,0.02521,1.10021,9.74471,0.00492,-0.01056,-0.03873,2.431,51.134,-50.246,357.908,-6.172,-0.056,5.0,62.6444,23.000008,120.21943,47.627,NaN,3.001,48.0,184.546,0 / 0,50009,2021-03-23 20:34:16:703
0.46944,1.45585,9.83946,0.09437,1.19465,9.73315,0.00419,-0.01157,-0.04996,2.657,51.94,-48.111,356.712,-6.733,-0.347,5.0,62.6444,23.000008,120.21943,47.627,NaN,3.001,48.0,184.546,0 / 0,50109,2021-03-23 20:34:16:803
0.12215,1.21395,9.68618,0.1394,1.2315,9.72802,0.00172,-0.00916,-0.08207,2.801,50.45,-46.796,356.428,-6.997,-0.556,5.0,62.6444,23.000008,120.21943,47.627,NaN,3.001,48.0,184.546,0 / 0,50209,2021-03-23 20:34:16:903
0.02395,1.08461,9.68857,0.21116,1.25489,9.72374,-0.00308,-0.00335,-0.09376,1.971,53.853,-52.951,357.011,-7.352,-1.244,5.0,61.0616,23.000008,120.21943,47.627,NaN,3.001,48.0,184.546,0 / 0,50309,2021-03-23 20:34:17:003
0.42393,1.51094,9.91132,0.19044,1.25733,9.72385,0.00597,-0.00599,-0.10502,2.669,54.185,-52.386,356.157,-7.35,-1.151,5.0,61.0616,23.000008,120.21943,47.627,NaN,3.001,48.0,184.546,0 / 0,50408,2021-03-23 20:34:17:102
0.18203,1.27382,9.61912,0.20028,1.2784,9.7209,0.01135,-0.0086,-0.12203,1.953,53.717,-52.942,357.072,-7.49,-1.18,5.0,61.0616,23.000008,120.21943,47.627,NaN,3.001,48.0,184.546,0 / 0,50509,2021-03-23 20:34:17:203
0.13173,1.08461,9.56882,0.18919,1.29732,9.71862,7.6E-4,-0.01634,-0.13466,1.298,52.754,-50.899,358.007,-7.621,-1.195,5.0,61.0616,23.000008,120.21943,47.627,NaN,3.001,48.0,184.546,0 / 0,50608,2021-03-23 20:34:17:302
0.36645,1.25945,9.76043,0.19328,1.28226,9.72054,7.6E-4,-0.01858,-0.13759,0.606,54.066,-53.234,358.114,-7.517,-1.072,5.0,62.5942,23.000008,120.21943,47.627,NaN,3.001,48.0,184.546,0 / 0,50709,2021-03-23 20:34:17:403
0.27064,1.23311,9.83467,0.21181,1.2872,9.7195,0.00358,-0.01391,-0.1632,-0.121,52.88,-52.968,358.985,-7.513,-1.139,5.0,62.5942,23.000008,120.21943,47.627,NaN,3.001,48.0,184.546,0 / 0,50809,2021-03-23 20:34:17:503
0.28022,1.08222,9.75563,0.22383,1.26981,9.72152,-3.9E-4,-0.01546,-0.16862,-0.726,51.123,-52.764,359.78,-7.44,-1.319,5.0,62.5942,23.000008,120.21943,47.627,NaN,3.001,48.0,184.546,0 / 0,50908,2021-03-23 20:34:17:602
0.28741,1.19,9.91371,0.21944,1.23747,9.72579,0.0028,-0.0119,-0.17775,-0.497,51.248,-52.313,358.833,-7.33,-1.284,5.0,62.1322,23.000008,120.21943,47.627,NaN,3.001,48.0,184.546,0 / 0,51008,2021-03-23 20:34:17:702
0.2443,1.02713,9.66941,0.22364,1.23129,9.72647,0.0049,-0.01071,-0.18564,-1.267,51.032,-52.03,359.804,-7.213,-1.317,5.0,62.1322,23.000008,120.21943,47.627,NaN,3.001,48.0,184.546,0 / 0,51109,2021-03-23 20:34:17:803
0.22514,1.12533,9.87539,0.2212,1.2022,9.73017,0.0032,-0.01558,-0.19819,-1.628,51.215,-51.598,0.819,-7.134,-1.304,5.0,62.1322,23.000008,120.21943,47.627,NaN,3.001,48.0,184.546,0 / 0,51210,2021-03-23 20:34:17:904
0.17484,1.10377,9.70534,0.21953,1.184,9.73244,0.00502,-0.01732,-0.20371,-3.59,51.051,-51.921,2.833,-6.966,-1.302,5.0,60.8803,23.000008,120.21943,47.627,NaN,3.001,48.0,184.546,0 / 0,51309,2021-03-23 20:34:18:003
0.05269,1.09898,9.58558,0.21429,1.17918,9.73314,0.0081,-0.01368,-0.21083,-4.719,49.603,-51.342,3.945,-6.934,-1.292,5.0,60.8803,23.000008,120.21943,47.627,NaN,3.001,48.0,184.546,0 / 0,51409,2021-03-23 20:34:18:103
-0.0024,1.22113,9.7724,0.18691,1.18044,9.73355,0.00802,-0.01253,-0.21055,-3.624,49.712,-50.327,3.125,-6.914,-1.1,5.0,60.8803,23.000008,120.21943,47.627,NaN,3.001,48.0,184.546,0 / 0,51509,2021-03-23 20:34:18:203
-0.22035,1.11096,9.54487,0.14702,1.1975,9.73215,0.00829,-0.00759,-0.20764,-4.085,47.013,-50.899,3.376,-6.941,-0.992,5.0,60.5104,23.000008,120.21943,47.627,NaN,3.001,48.0,184.546,0 / 0,51608,2021-03-23 20:34:18:302
-0.03832,1.08222,9.72211,0.10896,1.20256,9.73203,0.00712,-0.00597,-0.20357,-4.431,45.91,-49.413,3.822,-7.044,-0.641,5.0,60.5104,23.000008,120.21943,47.627,NaN,3.001,48.0,184.546,0 / 0,51709,2021-03-23 20:34:18:403
-0.2419,1.08701,9.69097,0.0424,1.20003,9.73286,0.00293,-0.00842,-0.1899,-5.267,46.657,-49.525,4.985,-7.065,-0.452,5.0,60.5104,23.000008,120.21943,47.627,NaN,3.001,48.0,184.546,0 / 0,51808,2021-03-23 20:34:18:502
-0.28501,1.10377,9.54008,-0.02213,1.1953,9.73351,0.00443,-0.0089,-0.18535,-6.233,44.349,-48.924,6.833,-6.988,-0.061,5.0,60.5104,23.000008,120.21943,47.627,NaN,3.001,48.0,184.546,0 / 0,51908,2021-03-23 20:34:18:602
-0.47902,1.07264,9.59756,-0.05643,1.19021,9.73399,0.0035,-0.00546,-0.16479,-6.728,43.147,-48.006,8.334,-7.001,0.13,5.0,61.0122,23.000008,120.21943,47.627,NaN,3.001,48.0,184.546,0 / 0,52009,2021-03-23 20:34:18:703
-0.37124,1.30496,9.78198,-0.1404,1.18569,9.7337,3.3E-4,-0.00655,-0.1513,-5.063,42.461,-46.578,6.835,-6.944,0.826,5.0,61.0122,23.000008,120.21943,47.627,NaN,3.001,48.0,184.546,0 / 0,52108,2021-03-23 20:34:18:802
-0.50776,1.12054,9.60235,-0.20247,1.18108,9.73316,-2.0E-5,-0.01245,-0.13229,-5.785,41.018,-45.092,8.406,-6.899,1.034,5.0,61.0122,23.000008,120.21943,47.627,NaN,3.001,48.0,184.546,0 / 0,52209,2021-03-23 20:34:18:903
-0.29699,1.09659,9.61672,-0.23798,1.17349,9.73328,-2.6E-4,-0.01265,-0.11913,-5.947,40.449,-44.521,8.948,-6.873,1.401,5.0,61.694,23.000008,120.21943,47.627,NaN,3.001,48.0,184.546,0 / 0,52308,2021-03-23 20:34:19:002
-0.52692,1.08701,9.60235,-0.2851,1.16819,9.73265,-0.00711,-0.00782,-0.08695,-6.306,40.398,-45.63,9.14,-6.844,1.583,5.0,61.694,23.000008,120.21943,47.627,NaN,3.001,48.0,184.546,0 / 0,52409,2021-03-23 20:34:19:103
-0.52452,1.17323,9.76522,-0.32794,1.14835,9.73366,-0.00921,-0.00648,-0.0761,-5.994,39.602,-45.206,9.385,-6.782,1.836,5.0,61.694,23.000008,120.21943,47.627,NaN,3.001,48.0,184.546,0 / 0,52509,2021-03-23 20:34:19:203
-0.42393,1.09659,9.83946,-0.34993,1.13807,9.7341,-0.01367,-0.00354,-0.05077,-5.16,38.156,-43.507,8.594,-6.725,1.93,5.0,61.5973,23.000008,120.21943,47.627,NaN,3.001,48.0,184.546,0 / 0,52609,2021-03-23 20:34:19:303
-0.41195,0.96965,9.55205,-0.37981,1.10255,9.73707,-0.01485,5.4E-4,-0.03636,-5.892,38.703,-43.586,10.013,-6.455,2.234,5.0,61.5973,23.000008,120.21943,47.627,NaN,3.001,48.0,184.546,0 / 0,52709,2021-03-23 20:34:19:403
-0.45028,0.82115,9.56882,-0.41158,1.06183,9.7403,-0.01464,0.00467,-0.01738,-7.613,37.202,-42.482,13.162,-6.321,2.29,5.0,61.5973,23.000008,120.21943,47.627,NaN,3.001,48.0,184.546,0 / 0,52810,2021-03-23 20:34:19:504
-0.75924,0.95049,9.86341,-0.42473,1.03886,9.74222,-0.01644,0.00366,-0.00451,-5.818,37.613,-43.012,10.534,-6.081,2.496,5.0,61.5973,23.000008,120.21943,47.627,NaN,3.001,48.0,184.546,0 / 0,52909,2021-03-23 20:34:19:603
-0.57482,0.89301,9.96161,-0.48613,0.99277,9.74415,-0.01462,-0.00553,0.02651,-6.131,38.814,-44.0,10.545,-5.956,2.698,5.0,62.4498,23.000008,120.21943,47.627,NaN,3.001,48.0,184.546,0 / 0,53008,2021-03-23 20:34:19:702
-0.40477,0.77325,9.75324,-0.50546,0.94386,9.74803,-0.01193,-0.01311,0.03571,-5.956,38.11,-43.331,11.05,-5.654,2.95,5.0,62.4498,23.000008,120.21943,47.627,NaN,3.001,48.0,184.546,0 / 0,53109,2021-03-23 20:34:19:803
-0.35208,0.68463,9.77719,-0.48147,0.92128,9.7514,-0.00782,-0.01357,0.05166,-5.487,38.705,-44.614,9.639,-5.523,2.968,5.0,62.4498,23.000008,120.21943,47.627,NaN,3.001,48.0,184.546,0 / 0,53209,2021-03-23 20:34:19:903
-0.39758,0.70619,9.77959,-0.46929,0.88329,9.75551,-0.00735,-0.00635,0.06576,-5.638,38.553,-43.468,10.692,-5.168,2.754,5.0,62.3656,23.000008,120.21943,47.627,NaN,3.001,48.0,184.546,0 / 0,53309,2021-03-23 20:34:20:003
-0.45267,0.79481,9.95203,-0.45667,0.84412,9.75957,-0.00701,0.00687,0.08755,-6.303,39.263,-45.666,10.762,-5.091,2.692,5.0,62.3656,23.000008,120.21943,47.627,NaN,3.001,48.0,184.546,0 / 0,53409,2021-03-23 20:34:20:103
-0.5365,0.65589,9.63588,-0.46523,0.825,9.76081,-0.00491,0.01043,0.09612,-6.599,39.557,-45.052,11.83,-4.826,2.729,5.0,62.3656,23.000008,120.21943,47.627,NaN,3.001,48.0,184.546,0 / 0,53509,2021-03-23 20:34:20:203
-0.65146,0.48824,9.63349,-0.48106,0.79192,9.76278,-0.00421,0.01629,0.11931,-6.663,38.016,-43.691,12.367,-4.73,2.736,5.0,62.8415,23.000008,120.21943,47.627,NaN,3.001,48.0,184.546,0 / 0,53609,2021-03-23 20:34:20:303
-0.4862,0.6056,9.75085,-0.5068,0.76151,9.76389,-0.00585,0.01911,0.13131,-6.229,39.327,-45.766,11.101,-4.524,2.919,5.0,62.8415,23.000008,120.21943,47.627,NaN,3.001,48.0,184.546,0 / 0,53709,2021-03-23 20:34:20:403
-0.70894,0.61757,9.99993,-0.52311,0.74519,9.76429,-0.00751,0.01565,0.14645,-6.556,39.243,-45.52,12.462,-4.454,2.971,5.0,62.8415,23.000008,120.21943,47.627,NaN,3.001,48.0,184.546,0 / 0,53808,2021-03-23 20:34:20:502
-0.66583,0.47626,9.88736,-0.547,0.70927,9.76566,-0.00499,0.01402,0.154,-5.452,39.912,-47.207,9.989,-4.148,3.206,5.0,61.2107,23.000008,120.21943,47.627,NaN,3.001,48.0,184.546,0 / 0,53909,2021-03-23 20:34:20:603
-0.55566,0.46429,9.7724,-0.55277,0.67522,9.76775,-0.00314,0.00817,0.16863,-3.946,40.639,-46.855,8.531,-4.066,3.217,5.0,61.2107,23.000008,120.21943,47.627,NaN,3.001,48.0,184.546,0 / 0,54009,2021-03-23 20:34:20:703
-0.72092,0.49063,9.54247,-0.55284,0.66523,9.76843,-0.00314,0.00644,0.17277,-4.613,40.297,-48.17,10.126,-3.89,3.239,5.0,61.2107,23.000008,120.21943,47.627,NaN,3.001,48.0,184.546,0 / 0,54109,2021-03-23 20:34:20:803
-0.67541,0.50021,9.92329,-0.5577,0.65108,9.76911,-0.00146,-5.7E-4,0.18704,-4.502,39.727,-47.292,10.087,-3.852,3.251,5.0,60.4805,23.000008,120.21943,47.627,NaN,3.001,48.0,184.546,0 / 0,54209,2021-03-23 20:34:20:903
-0.46465,0.43794,9.76043,-0.53828,0.63101,9.77151,-0.00177,-4.3E-4,0.1928,-3.492,41.525,-49.334,7.274,-3.739,3.23,5.0,60.4805,23.000008,120.21943,47.627,NaN,3.001,48.0,184.546,0 / 0,54309,2021-03-23 20:34:21:003
-0.52692,0.43794,9.62391,-0.53285,0.61855,9.77261,0.00156,0.00358,0.2025,-3.158,41.594,-50.076,7.258,-3.689,3.153,5.0,60.4805,23.000008,120.21943,47.627,NaN,3.001,48.0,184.546,0 / 0,54409,2021-03-23 20:34:21:103
-0.22993,0.52416,9.71252,-0.49846,0.59587,9.77583,0.00259,0.01282,0.20932,-4.173,41.27,-50.829,8.519,-3.484,2.919,5.0,60.4805,23.000008,120.21943,47.627,NaN,3.001,48.0,184.546,0 / 0,54508,2021-03-23 20:34:21:202
-0.0958,0.65829,9.90413,-0.44052,0.59989,9.77837,0.00214,0.02146,0.20846,-3.635,41.865,-50.597,8.173,-3.509,2.778,5.0,62.5119,23.000008,120.21943,47.627,NaN,3.001,48.0,184.546,0 / 0,54608,2021-03-23 20:34:21:302
-0.1485,0.54811,9.85623,-0.40725,0.60625,9.77942,0.00632,0.02353,0.19998,-4.562,42.139,-51.081,8.977,-3.544,2.385,5.0,62.5119,23.000008,120.21943,47.627,NaN,3.001,48.0,184.546,0 / 0,54709,2021-03-23 20:34:21:403
-0.28262,0.33735,9.77959,-0.3667,0.61117,9.78072,0.00246,0.0246,0.19125,-2.788,42.89,-52.108,6.188,-3.585,2.212,5.0,62.5119,23.000008,120.21943,47.627,NaN,3.001,48.0,184.546,0 / 0,54809,2021-03-23 20:34:21:503
-0.11257,0.311,9.62391,-0.34637,0.5797,9.78337,2.8E-4,0.02329,0.18959,-3.515,42.978,-51.637,7.303,-3.476,2.1,5.0,62.7074,23.000008,120.21943,47.627,NaN,3.001,48.0,184.546,0 / 0,54909,2021-03-23 20:34:21:603
-0.12694,0.20322,9.96161,-0.32915,0.55705,9.78528,-0.00106,0.01812,0.17812,-3.287,43.212,-52.965,6.041,-3.389,2.028,5.0,62.7074,23.000008,120.21943,47.627,NaN,3.001,48.0,184.546,0 / 0,55009,2021-03-23 20:34:21:703
0.01437,-0.11293,9.83228,-0.28814,0.48177,9.79057,-0.00476,0.01114,0.17018,-2.143,43.328,-53.894,4.499,-2.816,1.686,5.0,62.7074,23.000008,120.21943,47.627,NaN,3.001,48.0,184.546,0 / 0,55109,2021-03-23 20:34:21:803
0.0982,-0.30214,9.76043,-0.22344,0.35302,9.79775,-0.00867,2.4E-4,0.15228,-2.258,42.498,-52.153,4.353,-2.47,1.505,5.0,63.8581,23.000008,120.21943,47.627,NaN,3.001,48.0,184.546,0 / 0,55209,2021-03-23 20:34:21:903
0.22274,-0.28537,9.84425,-0.18885,0.28176,9.80078,-0.00739,-0.0046,0.14368,-1.507,43.295,-52.163,3.861,-1.646,1.104,5.0,63.8581,23.000008,120.21943,47.627,NaN,3.001,48.0,184.546,0 / 0,55309,2021-03-23 20:34:22:003
0.34489,-0.20634,9.81551,-0.09564,0.1662,9.80478,-0.00283,4.3E-4,0.1243,-1.249,44.136,-52.11,2.216,-1.271,0.823,5.0,63.8581,23.000008,120.21943,47.627,NaN,3.001,48.0,184.546,0 / 0,55408,2021-03-23 20:34:22:102
0.01197,0.42836,10.0646,-0.00402,0.09465,9.80619,4.0E-4,0.0072,0.11367,-0.511,43.93,-50.859,1.315,-0.553,0.023,5.0,59.8557,23.000008,120.21943,47.627,NaN,3.001,48.0,184.546,0 / 0,55508,2021-03-23 20:34:22:202
-0.00958,0.49542,9.87539,0.0056,0.11589,9.80596,0.00904,0.01986,0.10584,-1.402,43.979,-53.248,1.315,-0.553,0.023,5.0,59.8557,23.000008,120.21943,47.627,NaN,3.001,48.0,184.546,0 / 0,55608,2021-03-23 20:34:22:302
-0.1461,0.41878,9.55445,-0.02035,0.19884,9.80461,0.00736,0.01375,0.10005,-0.725,43.26,-51.908,1.441,-1.162,0.119,5.0,59.8557,23.000008,120.21943,47.627,NaN,3.001,48.0,184.546,0 / 0,55709,2021-03-23 20:34:22:403
-0.11257,0.33735,9.61912,-0.04172,0.26163,9.80307,-0.00245,0.00332,0.08867,-0.497,44.885,-52.605,0.207,-1.392,0.181,5.0,59.8557,23.000008,120.21943,47.627,NaN,3.001,48.0,184.546,0 / 0,55809,2021-03-23 20:34:22:503
0.194,0.23436,9.87299,-0.04923,0.27088,9.80279,-0.0047,-0.00162,0.08847,-0.065,45.546,-52.291,0.316,-1.583,0.288,5.0,59.3371,23.000008,120.21943,47.627,NaN,3.001,48.0,184.546,0 / 0,55909,2021-03-23 20:34:22:603
0.20598,0.15772,9.74845,-0.01943,0.24869,9.80348,-0.0031,-0.00154,0.07832,-1.272,43.896,-53.296,1.562,-1.53,0.257,5.0,59.3371,23.000008,120.21943,47.627,NaN,3.001,48.0,184.546,0 / 0,56008,2021-03-23 20:34:22:702
