ACCELEROMETER X (m/s²),ACCELEROMETER Y (m/s²),ACCELEROMETER Z (m/s²),GRAVITY X (m/s²),GRAVITY Y (m/s²),GRAVITY Z (m/s²),GYROSCOPE X (rad/s),GYROSCOPE Y (rad/s),GYROSCOPE Z (rad/s),MAGNETIC FIELD X (μT),MAGNETIC FIELD Y (μT),MAGNETIC FIELD Z (μT),ORIENTATION Z (azimuth °),ORIENTATION X (pitch °),ORIENTATION Y (roll °),PROXIMITY (m),SOUND LEVEL (dB),LOCATION Latitude : ,LOCATION Longitude : ,LOCATION Altitude ( m),LOCATION Altitude-google ( m),LOCATION Speed ( m/s),LOCATION Accuracy ( m),LOCATION ORIENTATION (°),Satellites in range,Time since start in ms ,YYYY-MO-DD HH-MI-SS_SSS
0.00479,0.92175,9.90174,0.01432,0.79663,9.77423,0.0,-0.0015,5.0E-5,-10.384,20.672,-18.36,24.007,-4.659,-0.084,5.0,61.3207,23.000013,120.21947,42.651,NaN,0.0,32.0,184.568,0 / 0,11,2021-03-23 20:21:25:829
-0.00958,0.73493,9.64307,0.01513,0.79598,9.77428,-3.4E-4,-0.00162,-1.1E-4,-11.258,19.375,-18.368,28.276,-4.659,-0.084,5.0,61.4931,23.000013,120.21947,42.651,NaN,0.0,32.0,184.568,0 / 0,111,2021-03-23 20:21:25:929
-0.01916,0.68942,9.61432,0.0167,0.79072,9.77471,-4.8E-4,-0.00113,1.1E-4,-10.296,20.474,-18.614,24.899,-4.647,-0.097,5.0,61.4931,23.000013,120.21947,42.651,NaN,0.0,32.0,184.568,0 / 0,211,2021-03-23 20:21:26:029
-0.01916,0.81636,9.77959,0.01517,0.79647,9.77424,-4.3E-4,-0.00128,-2.0E-5,-10.373,20.224,-19.04,24.905,-4.625,-0.098,5.0,61.4931,23.000013,120.21947,42.651,NaN,0.0,32.0,184.568,0 / 0,311,2021-03-23 20:21:26:129
-0.00958,0.91217,9.81312,0.01442,0.79191,9.77461,-6.9E-4,-0.00143,-1.1E-4,-11.389,18.686,-17.123,28.382,-4.638,-0.084,5.0,61.4931,23.000013,120.21947,42.651,NaN,0.0,32.0,184.568,0 / 0,411,2021-03-23 20:21:26:229
0.06227,0.7996,9.78438,0.01545,0.79156,9.77464,-6.2E-4,-0.00176,5.0E-5,-10.059,19.779,-19.432,24.913,-4.632,-0.085,5.0,61.2547,23.000013,120.21947,42.651,NaN,0.0,32.0,184.568,0 / 0,511,2021-03-23 20:21:26:329
0.03353,0.69661,9.73168,0.01796,0.79317,9.77451,-7.4E-4,-0.00151,-2.0E-5,-11.3,19.644,-18.657,27.051,-4.639,-0.105,5.0,61.2547,23.000013,120.21947,42.651,NaN,0.0,32.0,184.568,0 / 0,611,2021-03-23 20:21:26:429
-0.00479,0.74212,9.68857,0.01457,0.79074,9.77471,-3.5E-4,-0.0015,-2.3E-4,-10.466,20.039,-19.293,24.895,-4.639,-0.105,5.0,61.2547,23.000013,120.21947,42.651,NaN,0.0,32.0,184.568,0 / 0,711,2021-03-23 20:21:26:529
0.00958,0.87145,9.82509,0.01682,0.79327,9.7745,-8.0E-5,-0.00121,-1.1E-4,-11.069,20.817,-20.2,25.94,-4.647,-0.084,5.0,62.841,23.000013,120.21947,42.651,NaN,0.0,32.0,184.568,0 / 0,811,2021-03-23 20:21:26:629
-0.01198,0.82834,9.81791,0.01633,0.79006,9.77476,-3.0E-4,-0.00116,2.0E-5,-10.331,20.496,-19.708,24.814,-4.64,-0.099,5.0,62.841,23.000013,120.21947,42.651,NaN,0.0,32.0,184.568,0 / 0,911,2021-03-23 20:21:26:729
0.02635,0.71577,9.66702,0.01616,0.79171,9.77463,-1.0E-5,-0.00113,1.2E-4,-10.41,20.609,-18.855,23.922,-4.652,-0.093,5.0,62.841,23.000013,120.21947,42.651,NaN,0.0,32.0,184.568,0 / 0,1010,2021-03-23 20:21:26:828
-0.02874,0.72775,9.71013,0.01399,0.79298,9.77453,-1.0E-4,-0.00206,-2.0E-5,-12.011,20.001,-19.133,29.137,-4.631,-0.095,5.0,62.1135,23.000013,120.21947,42.651,NaN,0.0,32.0,184.568,0 / 0,1111,2021-03-23 20:21:26:929
-0.01677,0.82594,9.74126,0.01444,0.79165,9.77463,-9.1E-4,-0.00134,2.7E-4,-10.593,20.047,-19.215,27.069,-4.63,-0.085,5.0,62.1135,23.000013,120.21947,42.651,NaN,0.0,32.0,184.568,0 / 0,1211,2021-03-23 20:21:27:029
0.01677,0.85468,9.92569,0.01461,0.79431,9.77442,-4.0E-4,-9.0E-4,1.3E-4,-9.293,19.091,-17.857,23.752,-4.63,-0.085,5.0,62.1135,23.000013,120.21947,42.651,NaN,0.0,32.0,184.568,0 / 0,1311,2021-03-23 20:21:27:129
0.06706,0.78283,9.77719,0.01474,0.78196,9.77541,0.00547,0.00109,5.7E-4,-9.82,19.706,-18.852,24.928,-4.587,-0.082,5.0,62.0048,23.000013,120.21947,42.651,NaN,0.0,32.0,184.568,0 / 0,1411,2021-03-23 20:21:27:229
-0.03593,0.78523,9.66702,0.01348,0.782,9.77541,0.00713,8.2E-4,-3.2E-4,-9.903,21.848,-19.692,22.966,-4.574,-0.086,5.0,62.0048,23.000013,120.21947,42.651,NaN,0.0,32.0,184.568,0 / 0,1511,2021-03-23 20:21:27:329
-0.00719,0.86427,9.76043,0.0078,0.80006,9.77396,0.00408,-0.00144,5.0E-5,-11.19,19.487,-19.726,28.111,-4.594,-0.075,5.0,62.0048,23.000013,120.21947,42.651,NaN,0.0,32.0,184.568,0 / 0,1611,2021-03-23 20:21:27:429
-0.07185,1.2858,9.77719,0.00375,0.83324,9.77119,0.00391,-0.00115,6.6E-4,-10.699,18.979,-19.904,28.103,-4.68,-0.046,5.0,61.5468,23.000013,120.21947,42.651,NaN,0.0,32.0,184.568,0 / 0,1710,2021-03-23 20:21:27:528
-0.13173,1.45106,9.84186,7.0E-4,0.87239,9.76777,0.01173,0.00154,-8.8E-4,-9.525,21.56,-20.457,22.881,-5.104,-0.004,5.0,61.5468,23.000013,120.21947,42.651,NaN,0.0,32.0,184.568,0 / 0,1811,2021-03-23 20:21:27:629
-0.05748,1.41753,9.59517,-0.01334,0.98185,9.75737,0.01307,0.00167,6.1E-4,-9.631,20.506,-15.968,24.112,-5.104,-0.004,5.0,61.5468,23.000013,120.21947,42.651,NaN,0.0,32.0,184.568,0 / 0,1913,2021-03-23 20:21:27:731
-0.03832,1.43429,9.59995,-0.03881,1.09292,9.74548,0.0076,2.0E-4,0.00401,-10.573,20.116,-19.639,26.668,-6.076,0.144,5.0,61.5468,23.000013,120.21947,42.651,NaN,0.0,32.0,184.568,0 / 0,2011,2021-03-23 20:21:27:829
-0.01437,1.41274,9.65744,-0.0392,1.13473,9.7407,0.00183,-6.5E-4,0.0046,-9.949,20.82,-19.048,23.673,-6.399,0.228,5.0,64.6427,23.000013,120.21947,42.651,NaN,0.0,32.0,184.568,0 / 0,2111,2021-03-23 20:21:27:929
-0.08143,1.28819,9.61432,-0.04382,1.19287,9.73373,-0.00295,0.00134,0.00674,-9.575,19.497,-19.421,25.514,-6.85,0.25,5.0,64.6427,23.000013,120.21947,42.651,NaN,0.0,32.0,184.568,0 / 0,2211,2021-03-23 20:21:28:029
-0.10299,1.24748,9.66702,-0.05543,1.22189,9.73007,-0.00131,0.00207,0.00719,-10.613,19.614,-19.456,26.58,-6.987,0.258,5.0,64.6427,23.000013,120.21947,42.651,NaN,0.0,32.0,184.568,0 / 0,2311,2021-03-23 20:21:28:129
-0.10778,1.2834,9.6263,-0.05988,1.23037,9.72898,1.5E-4,0.00136,0.00988,-11.391,19.354,-19.09,27.643,-7.207,0.353,5.0,63.7994,23.000013,120.21947,42.651,NaN,0.0,32.0,184.568,0 / 0,2411,2021-03-23 20:21:28:229
-0.12694,1.35526,9.89934,-0.07127,1.2493,9.72649,-3.3E-4,0.00198,0.01151,-10.598,20.938,-20.772,25.379,-7.207,0.353,5.0,63.7994,23.000013,120.21947,42.651,NaN,0.0,32.0,184.568,0 / 0,2511,2021-03-23 20:21:28:329
-0.07904,1.46064,9.89934,-0.08044,1.25992,9.72505,8.0E-4,0.00115,0.01337,-9.804,20.551,-20.506,23.389,-7.335,0.447,5.0,63.7994,23.000013,120.21947,42.651,NaN,0.0,32.0,184.568,0 / 0,2611,2021-03-23 20:21:28:429
-0.10778,1.32412,9.56403,-0.0807,1.26851,9.72393,0.00161,0.00251,0.01457,-10.031,20.776,-22.629,23.204,-7.382,0.474,5.0,62.5376,23.000013,120.21947,42.651,NaN,0.0,32.0,184.568,0 / 0,2711,2021-03-23 20:21:28:529
-0.04072,1.25466,9.53768,-0.08413,1.29,9.72107,-8.3E-4,0.005,0.01625,-10.866,20.613,-21.559,25.283,-7.506,0.485,5.0,62.5376,23.000013,120.21947,42.651,NaN,0.0,32.0,184.568,0 / 0,2810,2021-03-23 20:21:28:628
-0.08383,1.384,9.84186,-0.09352,1.30518,9.71896,-6.9E-4,0.00542,0.01655,-9.86,20.134,-20.14,24.381,-7.559,0.496,5.0,62.5376,23.000013,120.21947,42.651,NaN,0.0,32.0,184.568,0 / 0,2911,2021-03-23 20:21:28:729
-0.06227,1.21155,9.57361,-0.09668,1.30657,9.71874,-0.00128,8.9E-4,0.01845,-8.755,19.973,-21.543,22.066,-7.656,0.57,5.0,62.5376,23.000013,120.21947,42.651,NaN,0.0,32.0,184.568,0 / 0,3010,2021-03-23 20:21:28:828
0.01437,1.16844,9.57361,-0.09402,1.30629,9.7188,-0.00186,7.6E-4,0.01755,-9.484,19.992,-21.927,22.065,-7.655,0.568,5.0,65.1462,23.000013,120.21947,42.651,NaN,0.0,32.0,184.568,0 / 0,3111,2021-03-23 20:21:28:929
-0.01198,1.32652,9.81312,-0.07794,1.29554,9.72038,-6.5E-4,-0.00318,0.0126,-9.7,19.69,-22.222,24.169,-7.607,0.517,5.0,65.1462,23.000013,120.21947,42.651,NaN,0.0,32.0,184.568,0 / 0,3213,2021-03-23 20:21:29:031
-0.03832,1.39358,9.8203,-0.06394,1.29338,9.72078,-6.2E-4,-0.00311,0.00803,-10.514,21.019,-24.135,25.024,-7.591,0.459,5.0,65.1462,23.000013,120.21947,42.651,NaN,0.0,32.0,184.568,0 / 0,3311,2021-03-23 20:21:29:129
0.02635,1.26424,9.71013,-0.04291,1.28898,9.72147,0.00163,-0.00122,0.00513,-9.499,20.978,-24.839,20.763,-7.534,0.306,5.0,62.9005,23.000013,120.21947,42.651,NaN,0.0,32.0,184.568,0 / 0,3410,2021-03-23 20:21:29:228
-0.03353,1.21634,9.64067,-0.03023,1.29443,9.7208,0.0025,0.00124,0.00362,-9.944,21.411,-25.694,22.658,-7.553,0.253,5.0,62.9005,23.000013,120.21947,42.651,NaN,0.0,32.0,184.568,0 / 0,3514,2021-03-23 20:21:29:332
-0.06467,1.29298,9.65504,-0.03134,1.29977,9.72008,0.00162,0.00531,9.6E-4,-8.29,20.705,-24.817,18.518,-7.616,0.185,5.0,62.9005,23.000013,120.21947,42.651,NaN,0.0,32.0,184.568,0 / 0,3611,2021-03-23 20:21:29:429
-0.11257,1.40076,9.89455,-0.0397,1.29919,9.72013,2.2E-4,0.00502,0.00188,-9.028,21.509,-26.423,19.788,-7.616,0.185,5.0,62.9062,23.000013,120.21947,42.651,NaN,0.0,32.0,184.568,0 / 0,3710,2021-03-23 20:21:29:528
-0.0958,1.30496,9.66223,-0.06094,1.29981,9.71994,0.00279,6.3E-4,0.00253,-9.379,20.349,-26.377,21.443,-7.62,0.303,5.0,62.9062,23.000013,120.21947,42.651,NaN,0.0,32.0,184.568,0 / 0,3811,2021-03-23 20:21:29:629
-0.17245,1.24508,9.576,-0.06641,1.30239,9.71956,0.0027,-0.00268,3.0E-5,-9.32,19.248,-26.643,22.258,-7.617,0.359,5.0,62.9062,23.000013,120.21947,42.651,NaN,0.0,32.0,184.568,0 / 0,3910,2021-03-23 20:21:29:728
-0.03353,1.36963,9.55684,-0.07288,1.29785,9.72012,-5.3E-4,-6.8E-4,0.00333,-8.874,19.796,-27.191,21.486,-7.607,0.439,5.0,63.7458,23.000013,120.21947,42.651,NaN,0.0,32.0,184.568,0 / 0,4011,2021-03-23 20:21:29:829
-0.01916,1.24508,9.47781,-0.06978,1.30501,9.71918,-0.00546,-0.0027,0.00522,-8.886,20.887,-28.899,20.506,-7.605,0.43,5.0,63.7458,23.000013,120.21947,42.651,NaN,0.0,32.0,184.568,0 / 0,4111,2021-03-23 20:21:29:929
-0.11496,1.16605,9.59756,-0.06589,1.30279,9.71951,-0.00748,-0.00655,-5.0E-5,-9.059,20.491,-28.654,21.235,-7.634,0.388,5.0,63.7458,23.000013,120.21947,42.651,NaN,0.0,32.0,184.568,0 / 0,4211,2021-03-23 20:21:30:029
-0.05988,1.27861,9.88257,-0.07366,1.28497,9.72182,-0.00599,-0.00643,0.00197,-8.13,20.36,-28.4,19.241,-7.596,0.428,5.0,63.7458,23.000013,120.21947,42.651,NaN,0.0,32.0,184.568,0 / 0,4310,2021-03-23 20:21:30:128
0.01197,1.30735,9.79635,-0.0659,1.27097,9.72372,-9.2E-4,-0.00184,0.00632,-8.46,18.752,-30.078,19.879,-7.472,0.419,5.0,62.4099,23.000013,120.21947,42.651,NaN,0.0,32.0,184.568,0 / 0,4411,2021-03-23 20:21:30:229
0.02395,1.26424,9.66702,-0.05221,1.26618,9.72443,0.00339,0.00248,4.8E-4,-9.036,18.641,-29.577,22.051,-7.447,0.388,5.0,62.4099,23.000013,120.21947,42.651,NaN,0.0,32.0,184.568,0 / 0,4511,2021-03-23 20:21:30:329
-0.15568,1.16844,9.66223,-0.0457,1.25813,9.7255,0.00156,0.00239,0.0046,-8.517,17.058,-29.183,23.932,-7.41,0.275,5.0,62.4099,23.000013,120.21947,42.651,NaN,0.0,32.0,184.568,0 / 0,4611,2021-03-23 20:21:30:429
-0.17963,1.24748,9.87539,-0.07081,1.2518,9.72617,0.00449,-2.5E-4,0.00232,-8.544,18.207,-30.655,22.738,-7.371,0.269,5.0,64.2296,23.000013,120.21947,42.651,NaN,0.0,32.0,184.568,0 / 0,4711,2021-03-23 20:21:30:529
-0.05988,1.16365,9.89216,-0.08662,1.24465,9.72696,0.00279,-0.01233,0.00362,-8.213,17.589,-29.693,20.896,-7.292,0.51,5.0,64.2296,23.000013,120.21947,42.651,NaN,0.0,32.0,184.568,0 / 0,4811,2021-03-23 20:21:30:629
0.04072,1.10856,9.70534,-0.06951,1.22466,9.72963,-2.9E-4,-0.00672,0.00717,-8.022,16.302,-27.997,23.038,-7.24,0.505,5.0,64.2296,23.000013,120.21947,42.651,NaN,0.0,32.0,184.568,0 / 0,4913,2021-03-23 20:21:30:731
0.10059,1.16605,9.48499,-0.02888,1.19222,9.73387,0.00432,0.00689,6.9E-4,-6.702,16.142,-29.056,20.153,-7.098,0.278,5.0,62.8821,23.000013,120.21947,42.651,NaN,0.0,32.0,184.568,0 / 0,5011,2021-03-23 20:21:30:829
-0.16287,1.2355,9.59517,-0.01946,1.19999,9.73294,0.00243,0.01287,-6.4E-4,-7.639,15.115,-28.299,23.843,-6.983,0.17,5.0,62.8821,23.000013,120.21947,42.651,NaN,0.0,32.0,184.568,0 / 0,5111,2021-03-23 20:21:30:929
-0.22035,1.26185,9.91611,-0.04939,1.20803,9.73183,-0.00982,0.00562,0.00402,-7.909,14.017,-26.032,25.276,-7.077,0.157,5.0,62.8821,23.000013,120.21947,42.651,NaN,0.0,32.0,184.568,0 / 0,5211,2021-03-23 20:21:31:029
-0.06227,1.25945,9.74126,-0.08158,1.1904,9.73379,-0.00749,0.00696,0.00453,-5.446,15.301,-27.631,15.669,-7.076,0.291,5.0,62.2488,23.000013,120.21947,42.651,NaN,0.0,32.0,184.568,0 / 0,5311,2021-03-23 20:21:31:129
0.0,1.08461,9.6766,-0.08448,1.18438,9.7345,-0.00936,0.00235,0.00268,-6.48,15.166,-25.673,19.055,-6.937,0.497,5.0,62.2488,23.000013,120.21947,42.651,NaN,0.0,32.0,184.568,0 / 0,5411,2021-03-23 20:21:31:229
0.01437,0.95288,9.8227,-0.07972,1.17046,9.73622,-0.01201,0.00992,0.00234,-6.757,13.552,-26.013,22.969,-6.945,0.485,5.0,62.2488,23.000013,120.21947,42.651,NaN,0.0,32.0,184.568,0 / 0,5511,2021-03-23 20:21:31:329
-0.17484,1.12293,9.83228,-0.07986,1.13229,9.74074,-0.0034,0.01655,0.00229,-5.562,11.852,-23.845,22.822,-6.766,0.483,5.0,61.8881,23.000013,120.21947,42.651,NaN,0.0,32.0,184.568,0 / 0,5612,2021-03-23 20:21:31:430
-0.30418,0.8954,9.87779,-0.08815,1.12232,9.74182,-0.00249,0.0167,-2.3E-4,-4.947,13.854,-23.714,17.311,-6.63,0.47,5.0,61.8881,23.000013,120.21947,42.651,NaN,0.0,32.0,184.568,0 / 0,5711,2021-03-23 20:21:31:529
-0.34729,0.87385,9.7724,-0.13207,1.0961,9.74431,-6.9E-4,-0.0026,0.00174,-5.85,12.024,-21.542,23.374,-6.544,0.608,5.0,61.8881,23.000013,120.21947,42.651,NaN,0.0,32.0,184.568,0 / 0,5811,2021-03-23 20:21:31:629
-0.13412,0.9433,9.76761,-0.17221,1.06297,9.74735,0.00546,-0.01015,0.00653,-6.35,12.705,-19.199,22.598,-6.417,0.777,5.0,61.8881,23.000013,120.21947,42.651,NaN,0.0,32.0,184.568,0 / 0,5911,2021-03-23 20:21:31:729
0.1437,1.12054,9.7748,-0.16044,1.05295,9.74864,0.01881,-0.01844,0.00134,-7.975,12.762,-18.879,29.071,-6.164,0.943,5.0,61.5503,23.000013,120.21947,42.651,NaN,0.0,32.0,184.568,0 / 0,6011,2021-03-23 20:21:31:829
0.12933,1.21155,9.71252,-0.09668,1.07002,9.74762,0.01736,-0.0085,-0.00304,-7.75,12.445,-18.993,30.586,-6.185,0.769,5.0,61.5503,23.000013,120.21947,42.651,NaN,0.0,32.0,184.568,0 / 0,6111,2021-03-23 20:21:31:929
0.00479,1.1397,9.50894,-0.0498,1.09753,9.74491,-0.001,0.00896,-7.5E-4,-6.052,12.397,-17.109,23.897,-6.348,0.388,5.0,61.5503,23.000013,120.21947,42.651,NaN,0.0,32.0,184.568,0 / 0,6211,2021-03-23 20:21:32:029
-0.18921,1.03911,9.55684,-0.05467,1.10789,9.74372,-0.00881,0.01356,-4.5E-4,-6.618,11.972,-17.011,27.143,-6.426,0.293,5.0,61.5493,23.000013,120.21947,42.651,NaN,0.0,32.0,184.568,0 / 0,6312,2021-03-23 20:21:32:130
-0.20119,1.01516,9.87539,-0.08587,1.10227,9.74413,-0.01149,0.00102,-0.00613,-6.31,13.571,-16.984,21.143,-6.502,0.412,5.0,61.5493,23.000013,120.21947,42.651,NaN,0.0,32.0,184.568,0 / 0,6412,2021-03-23 20:21:32:230
-0.22753,1.09898,9.65983,-0.10499,1.07106,9.74742,-0.00834,-0.00402,-0.00547,-5.798,13.455,-15.363,22.786,-6.454,0.505,5.0,61.5493,23.000013,120.21947,42.651,NaN,0.0,32.0,184.568,0 / 0,6511,2021-03-23 20:21:32:329
0.0958,1.03432,9.54487,-0.10865,1.06503,9.74804,-0.0176,-0.00845,-9.8E-4,-6.086,13.971,-15.159,21.646,-6.235,0.639,5.0,60.9833,23.000013,120.21947,42.651,NaN,0.0,32.0,184.568,0 / 0,6611,2021-03-23 20:21:32:429
0.01677,0.91935,9.8227,-0.08407,1.05073,9.74984,-0.01535,0.00388,8.1E-4,-6.805,15.524,-16.045,22.175,-6.177,0.652,5.0,60.9833,23.000013,120.21947,42.651,NaN,0.0,32.0,184.568,0 / 0,6711,2021-03-23 20:21:32:529
-0.21795,1.01516,9.79635,-0.07633,1.02621,9.75251,-0.00179,0.00179,-0.00831,-4.804,15.63,-14.303,16.372,-6.073,0.444,5.0,60.9833,23.000013,120.21947,42.651,NaN,0.0,32.0,184.568,0 / 0,6812,2021-03-23 20:21:32:630
-0.35926,0.84989,9.91611,-0.09275,1.01499,9.75354,-4.9E-4,-0.00213,-0.00557,-5.208,13.749,-12.137,18.556,-6.007,0.448,5.0,60.9833,23.000013,120.21947,42.651,NaN,0.0,32.0,184.568,0 / 0,6911,2021-03-23 20:21:32:729
-0.24909,0.92893,9.91371,-0.13964,1.00051,9.75448,0.00905,-0.02322,0.0027,-6.121,13.996,-11.648,22.082,-5.95,0.721,5.0,61.7629,23.000013,120.21947,42.651,NaN,0.0,32.0,184.568,0 / 0,7011,2021-03-23 20:21:32:829
0.07185,0.91696,9.64307,-0.12819,0.99701,9.75499,0.00561,-0.03363,0.00171,-6.098,14.388,-10.47,22.352,-5.856,0.82,5.0,61.7629,23.000013,120.21947,42.651,NaN,0.0,32.0,184.568,0 / 0,7110,2021-03-23 20:21:32:928
-0.02395,1.05587,9.83946,-0.08919,0.99993,9.75513,9.0E-5,-0.02338,0.00192,-4.682,14.642,-7.596,17.872,-5.852,0.524,5.0,61.7629,23.000013,120.21947,42.651,NaN,0.0,32.0,184.568,0 / 0,7211,2021-03-23 20:21:33:029
0.20358,1.00797,9.82988,-0.0327,1.00543,9.75492,-0.00733,-0.01767,0.00117,-5.983,13.478,-6.126,24.021,-5.869,0.337,5.0,60.5546,23.000013,120.21947,42.651,NaN,0.0,32.0,184.568,0 / 0,7311,2021-03-23 20:21:33:129
0.09341,0.7493,9.81312,0.01997,0.96474,9.75906,-0.01912,0.00901,-0.00482,-6.581,15.903,-5.55,22.947,-5.82,-0.029,5.0,60.5546,23.000013,120.21947,42.651,NaN,0.0,32.0,184.568,0 / 0,7411,2021-03-23 20:21:33:229
0.0958,0.86427,9.64307,0.0252,0.94037,9.76143,-0.01528,0.01785,-0.005,-6.248,14.182,-4.389,22.696,-5.646,-0.117,5.0,60.5546,23.000013,120.21947,42.651,NaN,0.0,32.0,184.568,0 / 0,7511,2021-03-23 20:21:33:329
-0.03114,0.79002,9.94724,0.01933,0.91239,9.7641,-0.00936,0.02975,-0.00576,-6.694,14.768,-5.244,24.39,-5.406,-0.169,5.0,61.8415,23.000013,120.21947,42.651,NaN,0.0,32.0,184.568,0 / 0,7610,2021-03-23 20:21:33:428
-0.40237,0.94091,9.39637,-0.02957,0.88996,9.76614,-0.00271,0.02781,-0.01023,-5.232,16.787,-5.835,15.922,-5.338,-0.113,5.0,61.8415,23.000013,120.21947,42.651,NaN,0.0,32.0,184.568,0 / 0,7710,2021-03-23 20:21:33:528
-0.28022,0.73493,9.87779,-0.07978,0.89468,9.76543,-0.00686,0.00585,-0.00227,-5.113,14.735,-4.535,18.135,-5.234,0.468,5.0,61.8415,23.000013,120.21947,42.651,NaN,0.0,32.0,184.568,0 / 0,7811,2021-03-23 20:21:33:629
-0.16526,0.80678,9.78917,-0.14626,0.88509,9.76553,-0.00435,-0.00579,0.00277,-6.412,14.546,-3.953,21.58,-5.274,0.729,5.0,62.8909,23.000013,120.21947,42.651,NaN,0.0,32.0,184.568,0 / 0,7911,2021-03-23 20:21:33:729
-0.20358,1.0894,9.7748,-0.13109,0.87296,9.76684,0.00509,-0.01383,-0.00706,-4.453,14.082,-1.94,15.927,-5.172,0.84,5.0,62.8909,23.000013,120.21947,42.651,NaN,0.0,32.0,184.568,0 / 0,8011,2021-03-23 20:21:33:829
-0.00719,0.92654,9.55924,-0.13055,0.8813,9.7661,0.00305,-0.02301,-0.00363,-6.193,15.851,-2.795,20.451,-5.107,0.769,5.0,62.8909,23.000013,120.21947,42.651,NaN,0.0,32.0,184.568,0 / 0,8110,2021-03-23 20:21:33:928
0.16526,0.85947,9.66941,-0.10194,0.90088,9.76465,-0.0083,-0.00123,7.6E-4,-7.92,15.592,-1.607,26.487,-5.235,0.756,5.0,62.6238,23.000013,120.21947,42.651,NaN,0.0,32.0,184.568,0 / 0,8211,2021-03-23 20:21:34:029
-0.16766,0.7996,10.1628,-0.04528,0.88465,9.76656,-0.00716,0.00193,-0.00745,-7.969,15.385,-1.574,27.955,-5.271,0.598,5.0,62.6238,23.000013,120.21947,42.651,NaN,0.0,32.0,184.568,0 / 0,8311,2021-03-23 20:21:34:129
-0.47423,0.78523,9.87539,-0.0427,0.86195,9.7686,0.00394,-0.00351,-0.01024,-6.078,16.225,-0.466,20.632,-5.042,0.25,5.0,62.6238,23.000013,120.21947,42.651,NaN,0.0,32.0,184.568,0 / 0,8412,2021-03-23 20:21:34:230
-0.10299,0.84989,9.59995,-0.09673,0.84293,9.76988,0.00216,-0.01251,-0.0038,-7.263,14.897,0.449,25.105,-4.949,0.401,5.0,62.6238,23.000013,120.21947,42.651,NaN,0.0,32.0,184.568,0 / 0,8510,2021-03-23 20:21:34:328
0.10299,0.85708,9.72211,-0.09529,0.85088,9.7692,-9.0E-4,-0.02203,-0.00388,-7.527,16.66,-1.542,25.13,-4.931,0.641,5.0,60.7815,23.000013,120.21947,42.651,NaN,0.0,32.0,184.568,0 / 0,8611,2021-03-23 20:21:34:429
0.26346,0.95049,9.49697,-0.0627,0.85725,9.76891,-0.00183,-0.01004,-0.00366,-7.123,15.394,0.104,25.108,-4.978,0.559,5.0,60.7815,23.000013,120.21947,42.651,NaN,0.0,32.0,184.568,0 / 0,8711,2021-03-23 20:21:34:529
0.10538,0.86427,10.01191,0.00588,0.87081,9.76791,-0.01829,0.01535,-0.00297,-8.131,15.422,-0.784,28.034,-5.066,0.125,5.0,60.7815,23.000013,120.21947,42.651,NaN,0.0,32.0,184.568,0 / 0,8810,2021-03-23 20:21:34:628
-0.0982,0.68463,9.88976,0.00242,0.84937,9.7698,-0.01264,0.02213,-0.00484,-8.457,15.113,1.622,28.456,-5.094,-0.034,5.0,62.4144,23.000013,120.21947,42.651,NaN,0.0,32.0,184.568,0 / 0,8911,2021-03-23 20:21:34:729
-0.30657,0.80678,9.76043,-0.02912,0.83651,9.77086,-0.00281,0.00937,-0.0024,-8.654,15.838,-1.043,29.328,-4.893,0.171,5.0,62.4144,23.000013,120.21947,42.651,NaN,0.0,32.0,184.568,0 / 0,9011,2021-03-23 20:21:34:829
-0.21795,0.9433,9.81312,-0.1014,0.83412,9.77059,0.00912,2.1E-4,-0.00359,-7.986,15.035,-1.546,27.937,-4.856,0.391,5.0,62.4144,23.000013,120.21947,42.651,NaN,0.0,32.0,184.568,0 / 0,9111,2021-03-23 20:21:34:929
0.17724,0.98881,9.7748,-0.11768,0.86303,9.76789,0.00448,-0.00957,-6.8E-4,-9.169,17.204,-0.589,27.91,-4.981,0.716,5.0,61.7106,23.000013,120.21947,42.651,NaN,0.0,32.0,184.568,0 / 0,9211,2021-03-23 20:21:35:029
-0.17724,0.85468,9.74366,-0.09244,0.87703,9.76692,-0.00194,-0.0062,-0.00277,-10.368,17.636,-2.724,28.894,-5.049,0.69,5.0,61.7106,23.000013,120.21947,42.651,NaN,0.0,32.0,184.568,0 / 0,9311,2021-03-23 20:21:35:129
-0.0982,0.85708,9.97838,-0.08652,0.87666,9.76701,0.00482,-0.01208,-0.00894,-10.676,16.94,-3.708,32.554,-5.17,0.481,5.0,61.7106,23.000013,120.21947,42.651,NaN,0.0,32.0,184.568,0 / 0,9412,2021-03-23 20:21:35:230
-0.00479,0.97683,9.8682,-0.08109,0.87006,9.76764,0.01118,-0.00717,-0.00266,-9.438,18.373,-4.683,26.215,-5.129,0.508,5.0,59.646,23.000013,120.21947,42.651,NaN,0.0,32.0,184.568,0 / 0,9511,2021-03-23 20:21:35:329
0.16047,1.05108,9.51852,-0.06345,0.88847,9.76611,-6.7E-4,0.00527,6.2E-4,-9.655,18.138,-6.234,28.533,-5.198,0.372,5.0,59.646,23.000013,120.21947,42.651,NaN,0.0,32.0,184.568,0 / 0,9611,2021-03-23 20:21:35:429
-0.22514,0.90019,9.69336,-0.03638,0.9274,9.76263,-0.01366,0.00921,-0.00853,-9.419,19.419,-6.705,24.775,-5.348,0.251,5.0,59.646,23.000013,120.21947,42.651,NaN,0.0,32.0,184.568,0 / 0,9712,2021-03-23 20:21:35:530
-0.1461,0.86187,9.75563,-0.05827,0.91807,9.76341,-0.01555,0.00149,-0.00279,-7.512,18.281,-5.742,23.473,-5.461,0.262,5.0,59.646,23.000013,120.21947,42.651,NaN,0.0,32.0,184.568,0 / 0,9811,2021-03-23 20:21:35:629
-0.15808,0.78283,9.87779,-0.076,0.90236,9.76475,-0.00738,0.00564,0.0027,-8.611,17.556,-6.88,25.96,-5.372,0.342,5.0,61.4719,23.000013,120.21947,42.651,NaN,0.0,32.0,184.568,0 / 0,9911,2021-03-23 20:21:35:729
-0.15568,0.86666,9.75803,-0.10811,0.88373,9.76615,0.0052,0.00209,0.00297,-8.252,17.278,-6.74,24.688,-5.192,0.58,5.0,61.4719,23.000013,120.21947,42.651,NaN,0.0,32.0,184.568,0 / 0,10011,2021-03-23 20:21:35:829
-0.23232,0.98162,9.88497,-0.1131,0.89143,9.7654,0.00593,0.00424,0.00344,-8.276,17.822,-8.348,23.457,-5.17,0.634,5.0,61.4719,23.000013,120.21947,42.651,NaN,0.0,32.0,184.568,0 / 0,10112,2021-03-23 20:21:35:930
-0.13412,0.89301,9.64067,-0.12525,0.89805,9.76464,-0.00362,-0.00668,0.00556,-9.387,18.705,-8.543,24.791,-5.254,0.735,5.0,60.5829,23.000013,120.21947,42.651,NaN,0.0,32.0,184.568,0 / 0,10211,2021-03-23 20:21:36:029
-0.0503,0.96725,9.93527,-0.13153,0.90077,9.76431,-0.00455,-0.00556,0.00393,-8.848,17.926,-8.274,26.033,-5.305,0.794,5.0,60.5829,23.000013,120.21947,42.651,NaN,0.0,32.0,184.568,0 / 0,10311,2021-03-23 20:21:36:129
-0.01437,1.07503,9.58798,-0.10417,0.89592,9.76509,0.00366,1.0E-4,0.00596,-8.444,17.6,-9.541,23.338,-5.21,0.703,5.0,60.5829,23.000013,120.21947,42.651,NaN,0.0,32.0,184.568,0 / 0,10411,2021-03-23 20:21:36:229
-0.28981,1.15646,9.77719,-0.0948,0.92037,9.76291,0.0018,0.00608,0.00813,-9.211,18.315,-9.9,25.809,-5.242,0.611,5.0,61.9172,23.000013,120.21947,42.651,NaN,0.0,32.0,184.568,0 / 0,10510,2021-03-23 20:21:36:328
-0.1461,1.20197,9.66702,-0.11037,0.96995,9.75794,0.0021,0.00725,0.00148,-9.877,18.805,-10.699,26.854,-5.531,0.562,5.0,61.9172,23.000013,120.21947,42.651,NaN,0.0,32.0,184.568,0 / 0,10611,2021-03-23 20:21:36:429
-0.30178,1.11335,9.55445,-0.13185,1.01755,9.75283,-0.00849,0.00164,0.00363,-9.959,19.36,-9.936,26.956,-5.676,0.648,5.0,61.9172,23.000013,120.21947,42.651,NaN,0.0,32.0,184.568,0 / 0,10711,2021-03-23 20:21:36:529
-0.27304,1.02713,9.79875,-0.14836,1.01469,9.75289,-0.00615,-0.01365,0.00551,-9.573,19.152,-11.08,26.921,-5.939,0.872,5.0,61.9172,23.000013,120.21947,42.651,NaN,0.0,32.0,184.568,0 / 0,10811,2021-03-23 20:21:36:629
-0.07185,1.17084,9.74606,-0.14494,0.99835,9.75462,0.00692,-0.0194,0.00799,-9.727,18.936,-10.709,26.93,-5.886,0.869,5.0,61.8073,23.000013,120.21947,42.651,NaN,0.0,32.0,184.568,0 / 0,10911,2021-03-23 20:21:36:729
0.22514,1.09419,9.87299,-0.10728,1.02439,9.75241,0.00791,-0.01401,0.00316,-9.903,19.67,-14.016,25.551,-5.885,0.783,5.0,61.8073,23.000013,120.21947,42.651,NaN,0.0,32.0,184.568,0 / 0,11011,2021-03-23 20:21:36:829
-0.02395,1.1397,9.43709,-0.06576,1.05185,9.74985,0.00458,-0.00448,0.00191,-10.923,18.987,-12.577,28.832,-5.996,0.63,5.0,61.8073,23.000013,120.21947,42.651,NaN,0.0,32.0,184.568,0 / 0,11112,2021-03-23 20:21:36:930
0.20598,1.23071,9.75563,-0.05657,1.05926,9.74911,-0.01123,0.00231,4.1E-4,-10.489,18.636,-13.941,26.344,-6.157,0.386,5.0,64.0753,23.000013,120.21947,42.651,NaN,0.0,32.0,184.568,0 / 0,11210,2021-03-23 20:21:37:028
-0.01677,0.82115,10.11969,-0.03178,1.05148,9.75007,-0.00773,0.00544,-0.00254,-11.736,18.899,-12.225,30.886,-6.201,0.332,5.0,64.0753,23.000013,120.21947,42.651,NaN,0.0,32.0,184.568,0 / 0,11311,2021-03-23 20:21:37:129
-0.26106,0.95767,9.83467,-0.03231,1.02951,9.75241,-3.7E-4,0.02037,-9.4E-4,-11.725,19.271,-15.215,30.435,-6.115,0.138,5.0,64.0753,23.000013,120.21947,42.651,NaN,0.0,32.0,184.568,0 / 0,11412,2021-03-23 20:21:37:230
-0.23472,1.29298,9.576,-0.05493,1.02215,9.75308,0.00836,0.01342,-0.00112,-11.734,18.699,-15.231,30.489,-6.026,0.19,5.0,64.0722,23.000013,120.21947,42.651,NaN,0.0,32.0,184.568,0 / 0,11510,2021-03-23 20:21:37:328
-0.24669,1.30975,9.64546,-0.10561,1.04494,9.75025,0.00657,-0.00258,-0.00145,-12.227,18.266,-15.834,31.792,-5.97,0.438,5.0,64.0722,23.000013,120.21947,42.651,NaN,0.0,32.0,184.568,0 / 0,11612,2021-03-23 20:21:37:430
-0.23232,1.12533,9.70773,-0.10475,1.05684,9.74898,0.00635,-0.00175,0.00179,-10.982,19.288,-16.301,28.492,-6.117,0.621,5.0,64.0722,23.000013,120.21947,42.651,NaN,0.0,32.0,184.568,0 / 0,11712,2021-03-23 20:21:37:530
-0.27304,1.10138,9.64307,-0.11301,1.0697,9.74748,0.01476,-0.01665,-0.00272,-11.776,18.702,-19.451,30.253,-6.187,0.616,5.0,64.6772,23.000013,120.21947,42.651,NaN,0.0,32.0,184.568,0 / 0,11811,2021-03-23 20:21:37:629
-0.31376,1.03192,9.88976,-0.14073,1.0928,9.74456,0.00627,-0.02067,-0.00441,-11.814,18.893,-19.553,30.155,-6.262,0.664,5.0,64.6772,23.000013,120.21947,42.651,NaN,0.0,32.0,184.568,0 / 0,11910,2021-03-23 20:21:37:728
0.48141,1.11096,9.81072,-0.14558,1.09048,9.74474,0.00795,-0.023,0.006,-11.863,17.77,-20.385,31.469,-6.384,0.856,5.0,64.6772,23.000013,120.21947,42.651,NaN,0.0,32.0,184.568,0 / 0,12012,2021-03-23 20:21:37:830
0.12933,1.19958,9.71731,-0.05707,1.08342,9.74645,0.01058,0.00289,-8.2E-4,-12.381,17.27,-21.464,32.526,-6.391,0.695,5.0,64.6772,23.000013,120.21947,42.651,NaN,0.0,32.0,184.568,0 / 0,12112,2021-03-23 20:21:37:930
0.05988,1.17323,9.39637,-0.00425,1.10364,9.74435,0.01336,0.02312,-0.00676,-11.574,14.978,-23.641,34.513,-6.377,0.191,5.0,65.6722,23.000013,120.21947,42.651,NaN,0.0,32.0,184.568,0 / 0,12212,2021-03-23 20:21:38:030
-0.13652,1.05587,9.73408,-0.01871,1.12109,9.74234,3.3E-4,0.03298,-0.00425,-10.656,15.592,-24.662,30.475,-6.462,0.025,5.0,65.6722,23.000013,120.21947,42.651,NaN,0.0,32.0,184.568,0 / 0,12311,2021-03-23 20:21:38:129
-0.35208,0.93133,10.02388,-0.07112,1.1257,9.74157,-0.00926,0.01988,-0.00212,-11.453,14.555,-25.513,31.779,-6.718,0.242,5.0,65.6722,23.000013,120.21947,42.651,NaN,0.0,32.0,184.568,0 / 0,12412,2021-03-23 20:21:38:230
-0.40477,0.97923,9.55924,-0.1547,1.07911,9.74587,-5.2E-4,0.00708,-0.0036,-9.473,13.58,-26.778,28.414,-6.592,0.418,5.0,66.6512,23.000013,120.21947,42.651,NaN,0.0,32.0,184.568,0 / 0,12511,2021-03-23 20:21:38:329
0.07185,1.22113,9.46583,-0.18592,1.07746,9.74551,-1.3E-4,-0.01298,-3.1E-4,-8.901,12.901,-27.498,30.903,-6.311,1.063,5.0,66.6512,23.000013,120.21947,42.651,NaN,0.0,32.0,184.568,0 / 0,12610,2021-03-23 20:21:38:428
-0.11975,1.14449,9.74845,-0.15224,1.09067,9.74462,-0.00818,-0.00401,0.00261,-9.778,10.929,-28.076,36.977,-6.308,1.093,5.0,66.6512,23.000013,120.21947,42.651,NaN,0.0,32.0,184.568,0 / 0,12712,2021-03-23 20:21:38:530
-0.46704,1.12054,9.69815,-0.13516,1.07715,9.74638,-0.00679,-0.016,-0.00697,-7.897,10.581,-27.758,30.982,-6.344,0.849,5.0,64.3196,23.000013,120.21947,42.651,NaN,0.0,32.0,184.568,0 / 0,12810,2021-03-23 20:21:38:628
-0.11975,0.90019,9.80114,-0.15921,1.06963,9.74684,-0.01112,-0.03075,-0.00162,-7.759,9.461,-27.016,35.136,-6.306,0.795,5.0,64.3196,23.000013,120.21947,42.651,NaN,0.0,32.0,184.568,0 / 0,12910,2021-03-23 20:21:38:728
0.32094,0.94091,9.73648,-0.13095,1.04561,9.74987,-0.00899,-0.01429,0.00777,-7.018,6.763,-25.799,37.322,-6.177,0.948,5.0,64.3196,23.000013,120.21947,42.651,NaN,0.0,32.0,184.568,0 / 0,13011,2021-03-23 20:21:38:829
0.23951,1.00078,9.60714,-0.04104,1.02149,9.75322,-0.00669,0.00433,0.0024,-6.424,7.169,-25.099,33.375,-6.121,0.77,5.0,61.7189,23.000013,120.21947,42.651,NaN,0.0,32.0,184.568,0 / 0,13110,2021-03-23 20:21:38:928
-0.21556,0.8451,9.9209,-0.01065,1.00756,9.75475,-8.4E-4,0.03184,-0.00352,-5.805,5.741,-22.805,35.876,-5.897,0.063,5.0,61.7189,23.000013,120.21947,42.651,NaN,0.0,32.0,184.568,0 / 0,13211,2021-03-23 20:21:39:029
-0.56045,0.8475,9.85862,-0.05646,0.99349,9.75603,-0.00515,0.02369,-0.00277,-4.681,6.699,-23.585,28.141,-5.896,0.101,5.0,61.7189,23.000013,120.21947,42.651,NaN,0.0,32.0,184.568,0 / 0,13310,2021-03-23 20:21:39:128
-0.28501,0.88582,9.59517,-0.16545,0.95753,9.75839,-0.00413,-0.015,-7.9E-4,-5.439,6.943,-22.227,29.96,-5.724,0.719,5.0,59.5623,23.000013,120.21947,42.651,NaN,0.0,32.0,184.568,0 / 0,13411,2021-03-23 20:21:39:229
0.28262,0.90977,9.80593,-0.1733,0.95191,9.7588,2.9E-4,-0.01713,0.00167,-5.793,7.542,-21.925,32.249,-5.603,0.971,5.0,59.5623,23.000013,120.21947,42.651,NaN,0.0,32.0,184.568,0 / 0,13512,2021-03-23 20:21:39:330
0.08383,0.71817,9.79396,-0.09855,0.92513,9.76242,0.00857,0.01477,-1.6E-4,-6.342,8.099,-22.868,31.975,-5.456,0.827,5.0,59.5623,23.000013,120.21947,42.651,NaN,0.0,32.0,184.568,0 / 0,13611,2021-03-23 20:21:39:429
-0.19161,0.89301,9.85144,-0.06895,0.89474,9.7655,0.01268,0.02144,-0.00885,-3.927,8.287,-23.586,22.533,-5.413,0.578,5.0,59.5623,23.000013,120.21947,42.651,NaN,0.0,32.0,184.568,0 / 0,13711,2021-03-23 20:21:39:529
-0.56284,0.98402,9.60475,-0.09417,0.89213,9.76553,0.00906,-0.01333,-0.00497,-3.407,8.767,-22.081,16.332,-5.22,0.552,5.0,57.4922,23.000013,120.21947,42.651,NaN,0.0,32.0,184.568,0 / 0,13811,2021-03-23 20:21:39:629
0.16526,0.87624,9.79635,-0.19173,0.89561,9.76379,-5.1E-4,-0.02459,0.0026,-3.39,8.832,-23.401,16.988,-5.216,0.937,5.0,57.4922,23.000013,120.21947,42.651,NaN,0.0,32.0,184.568,0 / 0,13914,2021-03-23 20:21:39:732
0.10059,0.82834,9.4826,-0.13364,0.89298,9.76499,-0.0024,-0.0128,0.00245,-4.225,8.848,-23.242,21.875,-5.173,1.069,5.0,57.4922,23.000013,120.21947,42.651,NaN,0.0,32.0,184.568,0 / 0,14011,2021-03-23 20:21:39:829
-0.06467,0.69182,10.11729,-0.07105,0.91212,9.76388,-0.01285,-0.01342,-0.0017,-5.506,6.945,-22.953,34.881,-5.225,0.784,5.0,59.7396,23.000013,120.21947,42.651,NaN,0.0,32.0,184.568,0 / 0,14111,2021-03-23 20:21:39:929
-0.13412,0.73014,9.64546,-0.06941,0.87882,9.76695,-0.01623,0.00144,-0.00538,-5.401,7.533,-23.954,26.912,-5.337,0.417,5.0,59.7396,23.000013,120.21947,42.651,NaN,0.0,32.0,184.568,0 / 0,14211,2021-03-23 20:21:40:029
0.54129,0.78523,10.36638,-0.06254,0.85143,9.76942,-0.01119,0.0035,-6.4E-4,-4.679,7.697,-22.742,27.249,-5.141,0.407,5.0,59.7396,23.000013,120.21947,42.651,NaN,0.0,32.0,184.568,0 / 0,14311,2021-03-23 20:21:40:129
-0.57482,0.61518,10.01909,-0.04025,0.83651,9.77082,4.8E-4,0.01277,-0.00372,-5.911,6.434,-21.87,37.798,-4.893,0.236,5.0,60.346,23.000013,120.21947,42.651,NaN,0.0,32.0,184.568,0 / 0,14411,2021-03-23 20:21:40:229
-0.34729,0.94091,9.75324,-0.09944,0.80708,9.77288,0.00492,-0.00669,4.8E-4,-5.268,6.509,-21.663,30.31,-4.727,0.356,5.0,60.346,23.000013,120.21947,42.651,NaN,0.0,32.0,184.568,0 / 0,14511,2021-03-23 20:21:40:329
-0.18921,0.52416,9.69815,-0.14107,0.79284,9.77353,0.00955,-0.01873,0.00524,-5.007,6.9,-20.763,31.271,-4.603,0.705,5.0,60.346,23.000013,120.21947,42.651,NaN,0.0,32.0,184.568,0 / 0,14612,2021-03-23 20:21:40:430
-0.06946,0.68463,9.50415,-0.1347,0.77978,9.77467,0.00834,-0.01324,-0.00409,-5.707,6.338,-19.777,39.64,-4.637,0.827,5.0,60.346,23.000013,120.21947,42.651,NaN,0.0,32.0,184.568,0 / 0,14712,2021-03-23 20:21:40:530
0.15807,0.86427,9.62391,-0.09579,0.81183,9.77252,-0.00681,-0.01499,6.0E-5,-8.54,7.784,-20.208,43.808,-4.715,0.624,5.0,57.8897,23.000013,120.21947,42.651,NaN,0.0,32.0,184.568,0 / 0,14811,2021-03-23 20:21:40:629
-0.21077,0.63913,9.85623,-0.05747,0.8122,9.77279,0.00427,-0.00316,0.00318,-7.922,7.483,-20.391,43.538,-4.749,0.562,5.0,57.8897,23.000013,120.21947,42.651,NaN,0.0,32.0,184.568,0 / 0,14911,2021-03-23 20:21:40:729
-0.0503,0.94091,9.88497,-0.04598,0.82323,9.77193,0.01793,0.00316,-0.00378,-8.815,8.543,-19.793,40.552,-4.787,0.284,5.0,57.8897,23.000013,120.21947,42.651,NaN,0.0,32.0,184.568,0 / 0,15011,2021-03-23 20:21:40:829
-0.0479,0.83792,9.74366,-0.04196,0.84621,9.76998,0.01455,0.01087,-0.00361,-8.719,9.591,-20.003,37.999,-4.815,0.27,5.0,58.6308,23.000013,120.21947,42.651,NaN,0.0,32.0,184.568,0 / 0,15110,2021-03-23 20:21:40:928
-0.15808,1.17323,9.99275,-0.03825,0.86506,9.76835,-0.01155,0.02192,0.00289,-9.267,10.578,-22.477,35.234,-4.994,0.235,5.0,58.6308,23.000013,120.21947,42.651,NaN,0.0,32.0,184.568,0 / 0,15211,2021-03-23 20:21:41:029
-0.44788,0.67505,9.95203,-0.08018,0.8615,9.76841,-0.01716,0.01945,-0.00713,-10.444,12.076,-22.696,35.822,-5.061,0.224,5.0,58.6308,23.000013,120.21947,42.651,NaN,0.0,32.0,184.568,0 / 0,15311,2021-03-23 20:21:41:129
-0.30418,0.67505,9.76761,-0.12931,0.82736,9.77083,-0.01615,-0.02886,-0.00618,-12.603,14.168,-25.398,39.719,-4.84,0.758,5.0,60.9305,23.000013,120.21947,42.651,NaN,0.0,32.0,184.568,0 / 0,15413,2021-03-23 20:21:41:231
-0.12454,0.43794,9.88018,-0.15655,0.8114,9.77177,-0.01695,-0.03121,0.00202,-11.713,16.169,-26.993,34.162,-4.84,0.758,5.0,60.9305,23.000013,120.21947,42.651,NaN,0.0,32.0,184.568,0 / 0,15513,2021-03-23 20:21:41:331
0.14849,0.84031,9.67899,-0.13364,0.79021,9.77385,-0.00181,-0.02752,0.00651,-13.676,21.441,-33.568,31.442,-4.622,0.783,5.0,60.9305,23.000013,120.21947,42.651,NaN,0.0,32.0,184.568,0 / 0,15611,2021-03-23 20:21:41:429
0.0982,0.92893,9.71731,-0.04856,0.79257,9.77445,0.01338,-0.00442,-0.00389,-15.107,21.619,-36.229,31.742,-4.565,0.53,5.0,60.2347,23.000013,120.21947,42.651,NaN,0.0,32.0,184.568,0 / 0,15711,2021-03-23 20:21:41:529
-0.01916,0.74691,10.01191,-0.01445,0.80722,9.77336,0.00585,0.00347,-1.8E-4,-14.975,22.87,-39.811,30.006,-4.711,0.19,5.0,60.2347,23.000013,120.21947,42.651,NaN,0.0,32.0,184.568,0 / 0,15811,2021-03-23 20:21:41:629
0.30657,0.68942,10.03107,-0.03073,0.79679,9.77418,0.01326,0.0046,0.00126,-16.225,23.431,-41.273,31.416,-4.722,0.085,5.0,60.2347,23.000013,120.21947,42.651,NaN,0.0,32.0,184.568,0 / 0,15910,2021-03-23 20:21:41:728
0.08862,0.93851,9.53768,-0.0225,0.78929,9.77481,0.02186,0.02435,-0.00315,-16.57,21.334,-44.282,34.948,-4.616,0.132,5.0,60.2347,23.000013,120.21947,42.651,NaN,0.0,32.0,184.568,0 / 0,16011,2021-03-23 20:21:41:829
-0.11496,0.8978,9.4826,-0.03275,0.83089,9.77133,0.00938,0.02694,-0.00384,-18.092,20.586,-44.655,36.405,-4.616,0.132,5.0,56.7778,23.000013,120.21947,42.651,NaN,0.0,32.0,184.568,0 / 0,16112,2021-03-23 20:21:41:930
-0.46465,0.82834,9.80354,-0.0991,0.85418,9.76888,-0.0047,0.00829,-0.00298,-16.727,17.812,-43.037,38.526,-4.956,0.306,5.0,56.7778,23.000013,120.21947,42.651,NaN,0.0,32.0,184.568,0 / 0,16211,2021-03-23 20:21:42:029
-0.16287,0.76367,9.87779,-0.1455,0.84658,9.76896,-0.00152,-0.00852,-0.00527,-15.502,16.05,-41.089,40.096,-4.997,0.581,5.0,56.7778,23.000013,120.21947,42.651,NaN,0.0,32.0,184.568,0 / 0,16311,2021-03-23 20:21:42:129
0.07185,0.72535,10.00233,-0.17695,0.81156,9.77141,-0.00219,-0.02285,0.00112,-14.05,12.497,-37.835,44.008,-4.847,0.956,5.0,56.5483,23.000013,120.21947,42.651,NaN,0.0,32.0,184.568,0 / 0,16411,2021-03-23 20:21:42:229
0.20837,0.77325,9.52571,-0.10925,0.78501,9.77457,-0.00369,-0.01202,9.6E-4,-12.903,11.39,-36.413,44.435,-4.747,1.037,5.0,56.5483,23.000013,120.21947,42.651,NaN,0.0,32.0,184.568,0 / 0,16511,2021-03-23 20:21:42:329
-0.02874,0.66068,9.58558,-0.07556,0.78438,9.77494,-0.0098,0.00506,-3.1E-4,-12.695,11.185,-34.443,44.12,-4.588,0.443,5.0,56.5483,23.000013,120.21947,42.651,NaN,0.0,32.0,184.568,0 / 0,16611,2021-03-23 20:21:42:429
-0.2443,0.65829,10.02149,-0.10758,0.77169,9.77565,-0.02109,-0.00532,3.9E-4,-13.291,10.883,-31.379,44.577,-4.588,0.443,5.0,56.8663,23.000013,120.21947,42.651,NaN,0.0,32.0,184.568,0 / 0,16711,2021-03-23 20:21:42:529
0.27304,0.8475,9.80354,-0.1265,0.7135,9.77984,-0.02606,-0.00937,0.00636,-13.676,11.341,-30.241,47.424,-4.376,0.79,5.0,56.8663,23.000013,120.21947,42.651,NaN,0.0,32.0,184.568,0 / 0,16812,2021-03-23 20:21:42:630
0.0479,0.80439,10.26339,-0.0775,0.69259,9.78186,-0.01219,0.02099,0.00774,-12.878,11.603,-28.795,43.556,-4.172,0.741,5.0,56.8663,23.000013,120.21947,42.651,NaN,0.0,32.0,184.568,0 / 0,16911,2021-03-23 20:21:42:729
-0.70655,0.39722,9.79635,-0.02895,0.63578,9.78598,0.01633,0.03721,-0.00379,-13.295,11.751,-28.745,43.4,-3.824,0.292,5.0,57.7175,23.000013,120.21947,42.651,NaN,0.0,32.0,184.568,0 / 0,17011,2021-03-23 20:21:42:829
-0.38561,0.80918,9.2886,-0.1191,0.63599,9.78528,0.02393,0.0124,-0.00135,-13.867,11.251,-28.62,47.617,-3.717,0.17,5.0,57.7175,23.000013,120.21947,42.651,NaN,0.0,32.0,184.568,0 / 0,17111,2021-03-23 20:21:42:929
-0.26825,0.91935,9.51134,-0.12329,0.65032,9.78429,0.00687,-0.02405,0.01523,-12.544,11.016,-28.616,46.04,-3.802,0.722,5.0,57.7175,23.000013,120.21947,42.651,NaN,0.0,32.0,184.568,0 / 0,17211,2021-03-23 20:21:43:029
0.12694,0.70379,9.95682,-0.10111,0.65738,9.78407,4.2E-4,-0.0359,0.01632,-12.318,11.34,-27.215,44.048,-3.802,0.722,5.0,57.4982,23.000013,120.21947,42.651,NaN,0.0,32.0,184.568,0 / 0,17311,2021-03-23 20:21:43:129
0.01677,0.60799,9.99514,-0.07163,0.65159,9.78472,-0.00342,-0.02189,0.00943,-11.936,11.451,-25.709,43.877,-3.841,0.489,5.0,57.4982,23.000013,120.21947,42.651,NaN,0.0,32.0,184.568,0 / 0,17412,2021-03-23 20:21:43:230
-0.39758,0.55051,9.91371,-0.06162,0.64918,9.78495,0.00735,-0.01571,0.01007,-12.712,8.401,-24.489,54.005,-3.81,0.419,5.0,57.4982,23.000013,120.21947,42.651,NaN,0.0,32.0,184.568,0 / 0,17511,2021-03-23 20:21:43:329
-0.10299,0.76846,9.83228,-0.06606,0.65497,9.78453,0.01569,-0.01754,0.01199,-12.659,7.359,-22.777,57.124,-3.799,0.388,5.0,57.4982,23.000013,120.21947,42.651,NaN,0.0,32.0,184.568,0 / 0,17611,2021-03-23 20:21:43:429
-0.07904,0.87145,9.33171,-0.02686,0.71328,9.78064,0.00487,-0.00651,0.01115,-11.392,8.409,-22.583,49.542,-3.83,0.387,5.0,57.6627,23.000013,120.21947,42.651,NaN,0.0,32.0,184.568,0 / 0,17711,2021-03-23 20:21:43:529
-0.15568,0.93133,9.65983,0.00836,0.72186,9.78004,-0.02069,0.01762,0.01068,-11.211,6.411,-18.371,56.359,-4.221,-0.049,5.0,57.6627,23.000013,120.21947,42.651,NaN,0.0,32.0,184.568,0 / 0,17810,2021-03-23 20:21:43:628
-0.82151,0.16969,9.67181,-0.01076,0.71017,9.7809,-0.0374,0.02375,0.00687,-10.522,6.812,-16.862,53.15,-4.221,-0.049,5.0,57.6627,23.000013,120.21947,42.651,NaN,0.0,32.0,184.568,0 / 0,17911,2021-03-23 20:21:43:729
-0.84307,0.80918,9.98796,-0.11449,0.68432,9.78208,-0.01487,-0.00889,0.00364,-9.999,7.912,-13.582,48.411,-4.097,0.458,5.0,62.534,23.000013,120.21947,42.651,NaN,0.0,32.0,184.568,0 / 0,18010,2021-03-23 20:21:43:828
0.0,0.65829,9.69815,-0.14938,0.65053,9.78391,-0.00853,-0.03401,0.00797,-11.682,7.598,-13.871,53.66,-4.001,0.671,5.0,62.534,23.000013,120.21947,42.651,NaN,0.0,32.0,184.568,0 / 0,18111,2021-03-23 20:21:43:929
0.36884,0.81636,9.89455,-0.11335,0.65015,9.78442,0.00273,-0.02156,0.01388,-10.681,9.345,-10.645,49.049,-3.805,0.924,5.0,62.534,23.000013,120.21947,42.651,NaN,0.0,32.0,184.568,0 / 0,18213,2021-03-23 20:21:44:031
0.0479,0.86427,9.61193,-0.00319,0.6586,9.78451,0.00369,-0.00534,0.00973,-10.321,8.813,-9.873,46.391,-3.801,0.664,5.0,61.2716,23.000013,120.21947,42.651,NaN,0.0,32.0,184.568,0 / 0,18311,2021-03-23 20:21:44:129
-0.03353,0.82115,9.74845,0.03455,0.67941,9.78303,-0.00662,0.02394,-0.00586,-9.67,10.855,-9.603,40.496,-3.973,-0.202,5.0,61.2716,23.000013,120.21947,42.651,NaN,0.0,32.0,184.568,0 / 0,18411,2021-03-23 20:21:44:229
-0.07425,0.61039,9.64067,-0.00914,0.66706,9.78393,-0.00973,0.02729,2.0E-5,-11.047,11.988,-9.293,41.045,-3.973,-0.202,5.0,61.2716,23.000013,120.21947,42.651,NaN,0.0,32.0,184.568,0 / 0,18511,2021-03-23 20:21:44:329
-0.17484,0.505,9.71492,-0.06238,0.66494,9.78388,-0.00179,0.02147,0.00574,-9.987,13.583,-10.205,34.482,-3.871,0.315,5.0,61.2716,23.000013,120.21947,42.651,NaN,0.0,32.0,184.568,0 / 0,18611,2021-03-23 20:21:44:429
-0.64667,0.71338,9.67899,-0.08469,0.66763,9.78353,0.00237,0.00888,0.00323,-10.722,14.484,-10.005,37.077,-3.888,0.365,5.0,57.4047,23.000013,120.21947,42.651,NaN,0.0,32.0,184.568,0 / 0,18711,2021-03-23 20:21:44:529
-0.46704,0.58165,10.06939,-0.16981,0.67675,9.7818,0.00697,-0.03233,0.00339,-11.778,15.313,-10.762,37.676,-3.955,0.701,5.0,57.4047,23.000013,120.21947,42.651,NaN,0.0,32.0,184.568,0 / 0,18811,2021-03-23 20:21:44:629
0.14131,0.6535,9.71971,-0.16715,0.67122,9.78222,0.01523,-0.03424,0.00988,-12.429,15.439,-11.413,37.809,-3.957,0.995,5.0,57.4047,23.000013,120.21947,42.651,NaN,0.0,32.0,184.568,0 / 0,18911,2021-03-23 20:21:44:729
0.69457,0.95049,9.29818,-0.13172,0.68732,9.78165,0.00776,-0.0176,0.00463,-13.107,17.772,-13.617,34.87,-4.019,0.772,5.0,55.4919,23.000013,120.21947,42.651,NaN,0.0,32.0,184.568,0 / 0,19011,2021-03-23 20:21:44:829
0.3401,1.20916,9.52092,-0.04591,0.72196,9.77993,-0.00896,0.01759,0.0014,-13.549,17.563,-11.973,37.012,-4.019,0.772,5.0,55.4919,23.000013,120.21947,42.651,NaN,0.0,32.0,184.568,0 / 0,19111,2021-03-23 20:21:44:929
-0.02156,0.5553,10.05742,-0.06204,0.70024,9.78142,-0.03159,0.03163,0.00614,-12.441,18.731,-14.1,31.162,-4.19,0.306,5.0,55.4919,23.000013,120.21947,42.651,NaN,0.0,32.0,184.568,0 / 0,19211,2021-03-23 20:21:45:029
0.11017,0.67266,10.19394,-0.06894,0.68789,9.78225,-0.02599,0.04026,0.00191,-10.857,20.01,-14.329,27.899,-4.095,0.363,5.0,56.2466,23.000013,120.21947,42.651,NaN,0.0,32.0,184.568,0 / 0,19311,2021-03-23 20:21:45:129
-0.33052,0.87385,9.64546,-0.12887,0.64635,9.78448,-0.01204,0.0258,-0.00145,-11.59,19.472,-16.675,31.2,-3.892,0.588,5.0,56.2466,23.000013,120.21947,42.651,NaN,0.0,32.0,184.568,0 / 0,19411,2021-03-23 20:21:45:229
-0.61314,0.44992,9.81551,-0.18853,0.62937,9.78462,-0.00818,0.01491,7.4E-4,-10.447,20.781,-17.093,24.858,-3.779,0.755,5.0,56.2466,23.000013,120.21947,42.651,NaN,0.0,32.0,184.568,0 / 0,19511,2021-03-23 20:21:45:329
-0.55326,0.52656,10.00472,-0.21891,0.61404,9.78496,0.00571,-0.01517,-9.3E-4,-13.218,19.603,-18.33,32.455,-3.59,1.282,5.0,56.7,23.000013,120.21947,42.651,NaN,0.0,32.0,184.568,0 / 0,19611,2021-03-23 20:21:45:429
-0.25627,0.42836,9.9209,-0.24121,0.60599,9.78494,0.01267,-0.03435,-0.00412,-14.429,20.826,-18.884,33.093,-3.59,1.282,5.0,56.7,23.000013,120.21947,42.651,NaN,0.0,32.0,184.568,0 / 0,19711,2021-03-23 20:21:45:529
0.12215,0.59362,9.78677,-0.19798,0.6165,9.78525,0.00656,-0.04112,0.00456,-12.587,22.832,-20.762,29.098,-3.551,1.344,5.0,56.7,23.000013,120.21947,42.651,NaN,0.0,32.0,184.568,0 / 0,19811,2021-03-23 20:21:45:629
0.49099,0.61518,9.57121,-0.13356,0.62471,9.78582,0.00521,-0.02336,0.00406,-13.207,23.506,-21.826,27.965,-3.604,1.159,5.0,56.7,23.000013,120.21947,42.651,NaN,0.0,32.0,184.568,0 / 0,19911,2021-03-23 20:21:45:729
-0.23232,0.3613,9.7748,-0.02708,0.63268,9.78618,0.02498,0.01558,0.00425,-13.773,22.53,-22.682,30.124,-3.7,0.437,5.0,55.7405,23.000013,120.21947,42.651,NaN,0.0,32.0,184.568,0 / 0,20011,2021-03-23 20:21:45:829
-0.46944,1.07024,9.9664,-0.0615,0.66629,9.7838,0.02873,0.00256,-0.00133,-12.601,23.42,-23.959,28.074,-3.699,0.159,5.0,55.7405,23.000013,120.21947,42.651,NaN,0.0,32.0,184.568,0 / 0,20110,2021-03-23 20:21:45:928
-0.08143,0.88582,9.67181,-0.09322,0.69884,9.78127,0.02639,-0.00244,0.00329,-13.081,22.524,-26.164,28.123,-4.086,0.546,5.0,55.7405,23.000013,120.21947,42.651,NaN,0.0,32.0,184.568,0 / 0,20211,2021-03-23 20:21:46:029
0.21077,0.80678,9.79635,-0.08942,0.76288,9.77652,0.0148,2.0E-4,0.00697,-11.531,21.974,-26.109,27.241,-4.086,0.546,5.0,58.7177,23.000013,120.21947,42.651,NaN,0.0,32.0,184.568,0 / 0,20311,2021-03-23 20:21:46:129
-0.24909,0.76846,9.71971,-0.04973,0.79547,9.77421,0.01062,0.00791,-0.00411,-11.961,20.72,-27.88,27.697,-4.605,0.339,5.0,58.7177,23.000013,120.21947,42.651,NaN,0.0,32.0,184.568,0 / 0,20411,2021-03-23 20:21:46:229
-0.39758,1.07982,9.49936,-0.07421,0.80355,9.77339,0.00902,-0.00914,-0.00516,-12.326,20.351,-29.27,28.598,-4.653,0.292,5.0,58.7177,23.000013,120.21947,42.651,NaN,0.0,32.0,184.568,0 / 0,20511,2021-03-23 20:21:46:329
-0.06467,1.18042,9.40835,-0.12492,0.86696,9.76745,-0.01135,-0.0207,0.00404,-9.108,18.941,-28.99,23.511,-4.833,0.586,5.0,57.6627,23.000013,120.21947,42.651,NaN,0.0,32.0,184.568,0 / 0,20611,2021-03-23 20:21:46:429
0.12215,1.0415,9.89216,-0.08739,0.89629,9.76522,-0.01933,-0.01844,0.00133,-8.374,18.762,-28.053,21.34,-5.072,0.733,5.0,57.6627,23.000013,120.21947,42.651,NaN,0.0,32.0,184.568,0 / 0,20711,2021-03-23 20:21:46:529
-0.00479,0.89301,9.97119,-0.04565,0.89049,9.76603,-0.01645,-0.00442,-0.00118,-6.482,16.509,-28.7,17.415,-5.21,0.268,5.0,57.6627,23.000013,120.21947,42.651,NaN,0.0,32.0,184.568,0 / 0,20811,2021-03-23 20:21:46:629
-0.0503,0.63434,9.97838,-0.03081,0.87801,9.76722,-0.01161,0.00376,-0.00274,-7.374,16.37,-28.544,21.025,-5.21,0.268,5.0,58.7195,23.000013,120.21947,42.651,NaN,0.0,32.0,184.568,0 / 0,20911,2021-03-23 20:21:46:729
-0.37842,0.90019,9.98317,-0.06671,0.85123,9.76941,-0.00326,-0.01061,-0.00346,-5.818,15.428,-28.614,19.313,-5.039,0.253,5.0,58.7195,23.000013,120.21947,42.651,NaN,0.0,32.0,184.568,0 / 0,21010,2021-03-23 20:21:46:828
0.09101,0.81636,9.63109,-0.08722,0.84276,9.76998,-0.00406,-0.02184,-0.00237,-6.551,15.406,-28.628,22.408,-4.98,0.391,5.0,58.7195,23.000013,120.21947,42.651,NaN,0.0,32.0,184.568,0 / 0,21111,2021-03-23 20:21:46:929
0.36645,0.83792,9.81072,-0.04618,0.84171,9.77035,6.3E-4,-0.00821,0.00279,-3.28,14.358,-27.905,11.161,-4.916,0.461,5.0,58.7195,23.000013,120.21947,42.651,NaN,0.0,32.0,184.568,0 / 0,21210,2021-03-23 20:21:47:028
0.07904,0.95767,9.70773,0.02635,0.84219,9.77038,0.00237,0.01615,-9.3E-4,-3.668,15.118,-28.571,13.351,-4.924,0.271,5.0,55.9651,23.000013,120.21947,42.651,NaN,0.0,32.0,184.568,0 / 0,21311,2021-03-23 20:21:47:129
-0.40237,0.95049,9.54487,0.02312,0.84924,9.76978,0.00382,0.01224,-0.00917,-1.811,14.288,-27.779,6.736,-4.968,-0.136,5.0,55.9651,23.000013,120.21947,42.651,NaN,0.0,32.0,184.568,0 / 0,21411,2021-03-23 20:21:47:229
-0.12694,0.93133,9.63349,-0.05135,0.84806,9.76978,0.01064,0.00214,-0.00689,-2.164,14.364,-28.26,6.736,-4.968,-0.136,5.0,55.9651,23.000013,120.21947,42.651,NaN,0.0,32.0,184.568,0 / 0,21512,2021-03-23 20:21:47:330
-0.06706,0.97204,9.87779,-0.08061,0.87204,9.76747,0.01817,-0.0047,0.00536,-2.623,16.944,-28.493,9.545,-5.054,0.536,5.0,58.7273,23.000013,120.21947,42.651,NaN,0.0,32.0,184.568,0 / 0,21611,2021-03-23 20:21:47:429
-0.07664,1.01995,9.64546,-0.07012,0.88873,9.76604,0.01813,-0.00909,0.0025,-1.408,15.668,-29.574,3.836,-5.102,0.473,5.0,58.7273,23.000013,120.21947,42.651,NaN,0.0,32.0,184.568,0 / 0,21711,2021-03-23 20:21:47:529
0.0958,0.94091,9.8682,-0.05384,0.92056,9.7632,0.00329,-6.6E-4,-0.00349,-4.216,17.359,-31.572,11.853,-5.254,0.3,5.0,58.7273,23.000013,120.21947,42.651,NaN,0.0,32.0,184.568,0 / 0,21811,2021-03-23 20:21:47:629
-0.03353,1.09898,9.48499,-0.0318,0.92354,9.76301,-0.00194,0.00666,-9.7E-4,-4.995,18.214,-32.684,13.851,-5.386,0.316,5.0,55.8913,23.000013,120.21947,42.651,NaN,0.0,32.0,184.568,0 / 0,21911,2021-03-23 20:21:47:729
-0.0479,0.97923,9.79156,-0.0388,0.9231,9.76303,-0.00335,0.01427,-0.00579,-5.089,17.222,-34.268,14.315,-5.401,0.228,5.0,55.8913,23.000013,120.21947,42.651,NaN,0.0,32.0,184.568,0 / 0,22011,2021-03-23 20:21:47:829
-0.06227,0.8978,9.7748,-0.05457,0.91876,9.76337,-0.00981,0.00842,-0.00696,-3.496,16.82,-34.8,8.825,-5.401,0.228,5.0,55.8913,23.000013,120.21947,42.651,NaN,0.0,32.0,184.568,0 / 0,22111,2021-03-23 20:21:47:929
0.12694,0.68463,9.87779,-0.06451,0.89452,9.76555,-0.01624,0.02207,2.0E-4,-4.165,16.787,-35.302,11.788,-5.32,0.342,5.0,57.2676,23.000013,120.21947,42.651,NaN,0.0,32.0,184.568,0 / 0,22210,2021-03-23 20:21:48:028
-0.22274,0.66068,9.58319,-0.06752,0.86296,9.76837,-0.01269,0.01975,-0.00106,-4.667,15.344,-35.957,16.04,-5.234,0.378,5.0,57.2676,23.000013,120.21947,42.651,NaN,0.0,32.0,184.568,0 / 0,22311,2021-03-23 20:21:48:129
-0.40237,0.67984,9.70294,-0.10228,0.82177,9.77162,-0.01196,0.0173,-0.00985,-4.089,16.93,-34.677,12.162,-4.92,0.485,5.0,57.2676,23.000013,120.21947,42.651,NaN,0.0,32.0,184.568,0 / 0,22411,2021-03-23 20:21:48:229
-0.03353,0.51219,9.8227,-0.14691,0.77373,9.77498,-0.01135,0.00363,-0.00335,-5.601,15.517,-35.164,18.641,-4.807,0.6,5.0,57.2676,23.000013,120.21947,42.651,NaN,0.0,32.0,184.568,0 / 0,22511,2021-03-23 20:21:48:329
-0.37603,0.68942,10.03107,-0.15023,0.75028,9.77675,-1.2E-4,-0.00201,-0.00511,-7.1,16.976,-36.215,20.979,-4.388,0.88,5.0,55.7737,23.000013,120.21947,42.651,NaN,0.0,32.0,184.568,0 / 0,22611,2021-03-23 20:21:48:429
-0.21077,0.72056,9.80354,-0.14977,0.72279,9.77883,0.00469,-0.00966,-0.00509,-6.028,16.935,-35.869,18.4,-4.388,0.88,5.0,55.7737,23.000013,120.21947,42.651,NaN,0.0,32.0,184.568,0 / 0,22711,2021-03-23 20:21:48:529
-0.2419,0.5529,9.71013,-0.14476,0.70808,9.77998,-0.00452,-0.01192,0.00233,-5.651,17.137,-36.037,18.431,-4.186,0.835,5.0,55.7737,23.000013,120.21947,42.651,NaN,0.0,32.0,184.568,0 / 0,22811,2021-03-23 20:21:48:629
-0.39519,0.67266,9.82749,-0.13558,0.68664,9.78164,0.00274,-0.01124,0.00222,-7.679,17.116,-37.374,23.54,-4.141,0.848,5.0,57.581,23.000013,120.21947,42.651,NaN,0.0,32.0,184.568,0 / 0,22911,2021-03-23 20:21:48:729
0.06227,0.60799,9.64307,-0.13267,0.68064,9.7821,0.01027,-0.01387,0.00161,-6.504,19.641,-37.996,18.425,-3.968,0.786,5.0,57.581,23.000013,120.21947,42.651,NaN,0.0,32.0,184.568,0 / 0,23010,2021-03-23 20:21:48:828
0.11496,0.67026,9.80114,-0.07794,0.69134,9.78194,0.00462,-0.0034,0.00271,-6.843,18.4,-38.225,20.053,-3.98,0.777,5.0,57.581,23.000013,120.21947,42.651,NaN,0.0,32.0,184.568,0 / 0,23111,2021-03-23 20:21:48:929
-0.1964,0.69182,9.87779,-0.06175,0.69113,9.78207,0.00423,0.01002,-0.00164,-9.089,19.154,-38.434,23.134,-4.041,0.362,5.0,59.05,23.000013,120.21947,42.651,NaN,0.0,32.0,184.568,0 / 0,23213,2021-03-23 20:21:49:031
-0.20119,0.85947,9.59995,-0.06374,0.67844,9.78295,0.00908,0.01327,-0.00344,-9.514,19.691,-40.18,24.245,-4.041,0.362,5.0,59.05,23.000013,120.21947,42.651,NaN,0.0,32.0,184.568,0 / 0,23310,2021-03-23 20:21:49:128
-0.24909,0.51937,9.54726,-0.11161,0.66952,9.78313,-0.01057,0.00181,0.00155,-7.91,18.301,-39.714,21.962,-3.949,0.502,5.0,59.05,23.000013,120.21947,42.651,NaN,0.0,32.0,184.568,0 / 0,23411,2021-03-23 20:21:49:229
-0.16766,0.46429,9.77959,-0.12581,0.65387,9.78402,-0.01977,-0.00664,0.00284,-9.21,17.811,-39.092,24.616,-3.915,0.654,5.0,59.3519,23.000013,120.21947,42.651,NaN,0.0,32.0,184.568,0 / 0,23511,2021-03-23 20:21:49:329
-0.19161,0.39483,9.79396,-0.12276,0.60194,9.78739,-0.01942,-0.01555,-0.00274,-8.981,17.402,-37.269,26.132,-3.712,0.766,5.0,59.3519,23.000013,120.21947,42.651,NaN,0.0,32.0,184.568,0 / 0,23611,2021-03-23 20:21:49:429
-0.22514,0.2631,9.94006,-0.11305,0.53719,9.79127,-0.01582,-0.02418,-8.0E-4,-8.244,17.486,-38.161,23.716,-3.519,0.719,5.0,59.3519,23.000013,120.21947,42.651,NaN,0.0,32.0,184.568,0 / 0,23711,2021-03-23 20:21:49:529
-0.06227,-0.00515,9.90413,-0.10663,0.49273,9.79368,-0.01497,-0.02985,0.0021,-9.869,16.22,-36.292,30.299,-2.88,0.624,5.0,59.3519,23.000013,120.21947,42.651,NaN,0.0,32.0,184.568,0 / 0,23811,2021-03-23 20:21:49:629
0.22753,0.0667,9.64307,-0.06899,0.3913,9.7986,-0.0102,-0.02631,0.00146,-9.746,15.733,-38.344,30.211,-2.88,0.624,5.0,60.3047,23.000013,120.21947,42.651,NaN,0.0,32.0,184.568,0 / 0,23911,2021-03-23 20:21:49:729
0.47902,0.02599,9.91132,0.01494,0.31154,9.80169,3.4E-4,0.00166,0.00369,-10.634,14.855,-35.864,34.374,-2.03,0.2,5.0,60.3047,23.000013,120.21947,42.651,NaN,0.0,32.0,184.568,0 / 0,24011,2021-03-23 20:21:49:829
0.23951,0.24154,9.61912,0.0538,0.27996,9.80251,7.5E-4,0.0181,0.002,-10.569,15.092,-35.155,34.204,-1.82,-0.087,5.0,60.3047,23.000013,120.21947,42.651,NaN,0.0,32.0,184.568,0 / 0,24111,2021-03-23 20:21:49:929
-0.36405,0.19125,9.67899,0.05976,0.25461,9.80316,-0.01597,0.02825,-0.00559,-9.263,14.005,-36.387,30.458,-1.488,-0.349,5.0,58.697,23.000013,120.21947,42.651,NaN,0.0,32.0,184.568,0 / 0,24211,2021-03-23 20:21:50:029
-0.37603,0.02838,9.92808,-0.02986,0.21206,9.80431,-0.021,0.01322,-0.00331,-9.263,14.005,-36.387,30.458,-1.488,-0.349,5.0,58.697,23.000013,120.21947,42.651,NaN,0.0,32.0,184.568,0 / 0,24310,2021-03-23 20:21:50:128
-0.17245,0.00204,9.86102,-0.07454,0.17833,9.80475,0.00782,-0.01229,0.00271,-8.794,13.105,-34.323,34.216,-1.042,0.436,5.0,58.697,23.000013,120.21947,42.651,NaN,0.0,32.0,184.568,0 / 0,24413,2021-03-23 20:21:50:231
0.02635,0.24873,9.70055,-0.09229,0.16318,9.80486,0.01987,-0.02092,0.00271,-9.217,12.572,-35.393,34.202,-1.042,0.436,5.0,60.7956,23.000013,120.21947,42.651,NaN,0.0,32.0,184.568,0 / 0,24511,2021-03-23 20:21:50:329
0.20358,0.48584,9.90652,-0.03486,0.2037,9.80447,0.02182,-0.00891,0.00217,-7.501,11.944,-33.32,33.131,-1.056,0.394,5.0,60.7956,23.000013,120.21947,42.651,NaN,0.0,32.0,184.568,0 / 0,24611,2021-03-23 20:21:50:429
-0.08862,0.25591,9.96161,-0.00766,0.23517,9.80383,0.01808,0.00489,2.6E-4,-8.104,11.261,-31.951,34.829,-1.19,0.204,5.0,60.7956,23.000013,120.21947,42.651,NaN,0.0,32.0,184.568,0 / 0,24711,2021-03-23 20:21:50:529
0.04072,0.33735,9.76522,-0.01672,0.26686,9.803,0.0212,-0.00458,-0.00171,-8.307,10.719,-32.153,34.09,-1.488,0.008,5.0,60.7684,23.000013,120.21947,42.651,NaN,0.0,32.0,184.568,0 / 0,24812,2021-03-23 20:21:50:630
-0.12215,0.43555,9.62391,-0.03217,0.31473,9.80155,0.0152,-0.00166,-0.00158,-8.931,10.619,-32.595,37.287,-1.559,0.098,5.0,60.7684,23.000013,120.21947,42.651,NaN,0.0,32.0,184.568,0 / 0,24911,2021-03-23 20:21:50:729
0.15568,0.53614,9.576,-0.03364,0.34034,9.80069,-0.00143,-0.0139,0.00203,-8.766,10.45,-31.193,39.444,-1.989,0.197,5.0,60.7684,23.000013,120.21947,42.651,NaN,0.0,32.0,184.568,0 / 0,25010,2021-03-23 20:21:50:828
0.10299,0.64871,9.73887,-0.00794,0.36488,9.79986,-0.00862,0.00216,0.00156,-8.432,8.526,-30.65,38.836,-1.989,0.197,5.0,60.7684,23.000013,120.21947,42.651,NaN,0.0,32.0,184.568,0 / 0,25112,2021-03-23 20:21:50:930
0.05748,0.41639,9.66462,0.01229,0.38137,9.79923,-0.02247,0.01041,9.4E-4,-7.5,8.8,-29.754,34.558,-2.218,-0.011,5.0,59.9719,23.000013,120.21947,42.651,NaN,0.0,32.0,184.568,0 / 0,25211,2021-03-23 20:21:51:029
-0.30418,0.23675,9.58079,0.00994,0.37485,9.79948,-0.01943,0.01319,-0.00146,-7.799,8.378,-29.537,40.996,-2.229,-0.072,5.0,59.9719,23.000013,120.21947,42.651,NaN,0.0,32.0,184.568,0 / 0,25311,2021-03-23 20:21:51:129
-0.12694,0.04754,9.74845,-0.05156,0.34374,9.80049,-0.0102,-0.00663,0.00342,-7.241,7.901,-28.283,38.011,-2.11,0.111,5.0,59.9719,23.000013,120.21947,42.651,NaN,0.0,32.0,184.568,0 / 0,25411,2021-03-23 20:21:51:229
0.01677,0.03796,10.03826,-0.06516,0.2866,9.80225,-0.00662,-0.00909,0.00429,-6.679,8.261,-29.035,38.443,-2.009,0.301,5.0,60.0594,23.000013,120.21947,42.651,NaN,0.0,32.0,184.568,0 / 0,25511,2021-03-23 20:21:51:329
0.22035,-0.14406,10.2131,-0.04279,0.2481,9.80342,-0.00504,-0.00434,-3.1E-4,-7.528,8.768,-28.979,39.869,-1.45,0.25,5.0,60.0594,23.000013,120.21947,42.651,NaN,0.0,32.0,184.568,0 / 0,25611,2021-03-23 20:21:51:429
0.07664,-0.17759,9.95682,0.00647,0.15561,9.80541,-0.00488,0.00263,-0.00133,-6.408,7.561,-27.26,35.177,-1.45,0.25,5.0,60.0594,23.000013,120.21947,42.651,NaN,0.0,32.0,184.568,0 / 0,25711,2021-03-23 20:21:51:529
-0.08862,-0.1249,9.63349,0.00542,0.08079,9.80632,-0.00413,0.01138,0.00191,-7.355,9.466,-28.773,36.678,-0.687,-0.075,5.0,60.2023,23.000013,120.21947,42.651,NaN,0.0,32.0,184.568,0 / 0,25811,2021-03-23 20:21:51:629
-0.1485,-0.04587,9.54726,-0.00789,0.05147,9.80651,-0.00369,0.00313,0.00127,-7.995,8.616,-26.951,40.888,-0.472,-0.032,5.0,60.2023,23.000013,120.21947,42.651,NaN,0.0,32.0,184.568,0 / 0,25911,2021-03-23 20:21:51:729
-0.05269,0.00443,9.79875,-0.03476,0.03382,9.80653,-0.006,-0.01067,0.00175,-6.213,9.358,-27.83,33.715,-0.231,0.165,5.0,60.2023,23.000013,120.21947,42.651,NaN,0.0,32.0,184.568,0 / 0,26011,2021-03-23 20:21:51:829
0.10059,0.04754,9.82988,-0.03325,0.03381,9.80654,-0.00686,-0.01454,0.00279,-7.856,10.619,-27.411,36.122,-0.198,0.203,5.0,60.8229,23.000013,120.21947,42.651,NaN,0.0,32.0,184.568,0 / 0,26111,2021-03-23 20:21:51:929
0.16766,0.10263,9.9688,-0.01432,0.03527,9.80658,-0.0076,-0.0019,-5.6E-4,-8.446,8.701,-27.647,41.462,-0.206,0.084,5.0,60.8229,23.000013,120.21947,42.651,NaN,0.0,32.0,184.568,0 / 0,26210,2021-03-23 20:21:52:028
0.11975,0.14095,9.97359,0.02823,0.0396,9.80653,-0.00624,0.0065,5.1E-4,-5.94,11.385,-27.348,28.557,-0.206,0.084,5.0,60.8229,23.000013,120.21947,42.651,NaN,0.0,32.0,184.568,0 / 0,26311,2021-03-23 20:21:52:129
-0.11496,0.17688,9.56403,0.01895,0.04115,9.80655,-0.00509,0.01208,-0.00108,-7.17,10.242,-27.082,34.344,-0.24,-0.191,5.0,60.8229,23.000013,120.21947,42.651,NaN,0.0,32.0,184.568,0 / 0,26411,2021-03-23 20:21:52:229
-0.17724,-0.06982,9.58319,1.2E-4,0.05648,9.80649,-0.0027,0.00913,-0.0027,-6.098,10.828,-29.259,28.122,-0.24,-0.111,5.0,60.4626,23.000013,120.21947,42.651,NaN,0.0,32.0,184.568,0 / 0,26511,2021-03-23 20:21:52:329
-0.01916,-0.42668,9.85144,-0.04241,0.04171,9.80647,-0.00538,-0.00835,-0.00115,-5.84,10.771,-29.22,28.542,-0.372,0.168,5.0,60.4626,23.000013,120.21947,42.651,NaN,0.0,32.0,184.568,0 / 0,26611,2021-03-23 20:21:52:429
0.05269,-0.54165,9.8706,-0.03438,-0.0464,9.80648,-0.00404,-0.00759,0.00255,-6.737,9.728,-28.826,35.14,-0.244,0.248,5.0,60.4626,23.000013,120.21947,42.651,NaN,0.0,32.0,184.568,0 / 0,26711,2021-03-23 20:21:52:529
0.12933,-0.54404,10.04305,-0.01374,-0.10645,9.80606,7.5E-4,6.0E-5,8.3E-4,-6.943,11.038,-28.131,33.351,0.622,0.08,5.0,59.9852,23.000013,120.21947,42.651,NaN,0.0,32.0,184.568,0 / 0,26811,2021-03-23 20:21:52:629
0.0,-0.62547,9.98077,0.01983,-0.21064,9.80437,0.00112,0.00361,-0.00302,-5.883,9.828,-28.772,31.953,0.622,0.08,5.0,59.9852,23.000013,120.21947,42.651,NaN,0.0,32.0,184.568,0 / 0,26911,2021-03-23 20:21:52:729
0.00239,-0.71649,9.65744,0.00508,-0.29419,9.80224,0.00359,0.00113,0.00129,-6.399,9.222,-27.759,35.715,1.484,-0.108,5.0,59.9852,23.000013,120.21947,42.651,NaN,0.0,32.0,184.568,0 / 0,27011,2021-03-23 20:21:52:829
0.12215,-0.74523,9.74366,-0.00117,-0.33248,9.80101,0.00258,8.0E-5,0.00302,-6.163,10.719,-30.131,30.66,1.719,-0.03,5.0,59.417,23.000013,120.21947,42.651,NaN,0.0,32.0,184.568,0 / 0,27111,2021-03-23 20:21:52:929
0.05269,-0.69972,9.93048,0.01302,-0.40671,9.7982,0.00175,-0.00182,-0.0022,-6.056,9.846,-29.764,34.067,2.145,-0.004,5.0,59.417,23.000013,120.21947,42.651,NaN,0.0,32.0,184.568,0 / 0,27211,2021-03-23 20:21:53:029
0.00718,-0.84343,9.83946,0.02908,-0.47759,9.79497,0.00125,4.0E-5,-0.00238,-5.878,10.178,-27.861,34.031,2.377,-0.076,5.0,59.417,23.000013,120.21947,42.651,NaN,0.0,32.0,184.568,0 / 0,27311,2021-03-23 20:21:53:129
0.11257,-0.96797,9.86581,0.02737,-0.51775,9.79293,-0.00178,-2.8E-4,0.00155,-6.453,10.725,-29.185,32.053,3.026,-0.16,5.0,59.101,23.000013,120.21947,42.651,NaN,0.0,32.0,184.568,0 / 0,27412,2021-03-23 20:21:53:230
-0.06706,0.29184,10.03826,0.03053,-0.60524,9.78791,-0.00214,-0.00158,-2.8E-4,-4.586,11.506,-31.146,25.719,3.286,-0.158,5.0,59.101,23.000013,120.21947,42.651,NaN,0.0,32.0,184.568,0 / 0,27511,2021-03-23 20:21:53:329
-0.14131,1.49417,10.03586,0.02412,-0.52763,9.79242,0.01293,-0.00149,9.6E-4,-6.468,10.095,-28.819,35.414,3.261,-0.147,5.0,59.101,23.000013,120.21947,42.651,NaN,0.0,32.0,184.568,0 / 0,27611,2021-03-23 20:21:53:429
-0.04311,0.87145,9.53768,0.02172,-0.48725,9.79451,0.01337,-6.6E-4,0.00133,-6.976,9.798,-29.106,39.436,3.084,-0.141,5.0,59.101,23.000013,120.21947,42.651,NaN,0.0,32.0,184.568,0 / 0,27711,2021-03-23 20:21:53:529
-0.05988,0.47626,9.35326,0.01884,-0.43023,9.79719,-0.00109,-5.7E-4,-9.2E-4,-7.367,9.686,-29.786,38.893,2.647,-0.115,5.0,59.9113,23.000013,120.21947,42.651,NaN,0.0,32.0,184.568,0 / 0,27811,2021-03-23 20:21:53:629
-0.16287,0.81876,9.88736,0.01628,-0.402,9.79839,-0.00345,-1.9E-4,1.4E-4,-6.272,10.357,-30.72,34.542,2.514,-0.11,5.0,59.9113,23.000013,120.21947,42.651,NaN,0.0,32.0,184.568,0 / 0,27911,2021-03-23 20:21:53:729
-0.17245,0.72056,9.79396,0.0133,-0.38303,9.79916,-0.00332,-0.00112,-1.5E-4,-6.245,10.821,-30.364,31.253,2.238,-0.078,5.0,59.9113,23.000013,120.21947,42.651,NaN,0.0,32.0,184.568,0 / 0,28011,2021-03-23 20:21:53:829
-0.10059,0.62236,9.83467,-0.0143,-0.15793,9.80537,-0.0036,-0.00235,-5.8E-4,-5.996,10.11,-29.695,34.044,2.238,-0.078,5.0,59.3214,23.000013,120.21947,42.651,NaN,0.0,32.0,184.568,0 / 0,28111,2021-03-23 20:21:53:929
-0.10299,0.73733,9.71492,-0.02851,7.2E-4,9.80661,5.4E-4,-0.00203,7.4E-4,-5.733,9.513,-29.753,31.886,0.48,0.123,5.0,59.3214,23.000013,120.21947,42.651,NaN,0.0,32.0,184.568,0 / 0,28211,2021-03-23 20:21:54:029
-0.11496,0.67984,9.56403,-0.03211,0.08679,9.80621,3.4E-4,-0.00172,-5.0E-5,-5.333,9.767,-28.533,26.945,-0.004,0.167,5.0,59.3214,23.000013,120.21947,42.651,NaN,0.0,32.0,184.568,0 / 0,28311,2021-03-23 20:21:54:129
-0.06946,0.66308,9.86341,-0.04546,0.22446,9.80398,-0.00318,-0.00189,-1.0E-5,-6.783,10.12,-28.754,34.146,-0.968,0.224,5.0,61.5592,23.000013,120.21947,42.651,NaN,0.0,32.0,184.568,0 / 0,28411,2021-03-23 20:21:54:229
-0.09101,0.82834,9.99275,-0.05261,0.31029,9.8016,-0.00212,-8.7E-4,2.6E-4,-5.666,11.453,-30.523,27.692,-1.312,0.266,5.0,61.5592,23.000013,120.21947,42.651,NaN,0.0,32.0,184.568,0 / 0,28511,2021-03-23 20:21:54:329
-0.09341,0.6032,9.57361,-0.05556,0.35433,9.80009,-5.1E-4,-0.00262,5.9E-4,-6.228,9.858,-29.895,29.12,-2.071,0.325,5.0,61.5592,23.000013,120.21947,42.651,NaN,0.0,32.0,184.568,0 / 0,28611,2021-03-23 20:21:54:429
-0.1485,0.6535,9.75324,-0.06702,0.43116,9.79694,-0.00157,-0.00155,2.1E-4,-6.889,10.024,-29.463,32.74,-2.327,0.357,5.0,58.8287,23.000013,120.21947,42.651,NaN,0.0,32.0,184.568,0 / 0,28710,2021-03-23 20:21:54:528
-0.03832,0.6535,9.69815,-0.07023,0.4739,9.79494,0.00184,-0.00256,0.0019,-5.87,11.443,-30.208,26.628,-2.66,0.394,5.0,58.8287,23.000013,120.21947,42.651,NaN,0.0,32.0,184.568,0 / 0,28811,2021-03-23 20:21:54:629
-0.10059,0.72535,9.72211,-0.07081,0.50283,9.7935,0.00626,-6.0E-5,0.00127,-6.889,10.381,-30.44,32.249,-2.77,0.411,5.0,58.8287,23.000013,120.21947,42.651,NaN,0.0,32.0,184.568,0 / 0,28911,2021-03-23 20:21:54:729
-0.12933,0.7996,9.87779,-0.07726,0.5595,9.79037,0.00627,-0.00198,-9.2E-4,-6.699,10.106,-30.089,31.899,-3.12,0.439,5.0,58.8287,23.000013,120.21947,42.651,NaN,0.0,32.0,184.568,0 / 0,29011,2021-03-23 20:21:54:829
-0.07185,0.71338,9.74606,-0.08058,0.6035,9.78773,0.00267,-4.7E-4,7.0E-4,-6.113,10.516,-30.65,26.097,-3.271,0.452,5.0,55.3944,23.000013,120.21947,42.651,NaN,0.0,32.0,184.568,0 / 0,29111,2021-03-23 20:21:54:929
-0.11496,0.66068,9.73887,-0.08402,0.61662,9.78688,-5.5E-4,-0.00186,-2.6E-4,-6.051,9.928,-31.312,27.717,-3.605,0.492,5.0,55.3944,23.000013,120.21947,42.651,NaN,0.0,32.0,184.568,0 / 0,29210,2021-03-23 20:21:55:028
-0.15089,0.71817,9.8682,-0.08401,0.6326,9.78587,-9.9E-4,-0.00171,-6.9E-4,-6.306,10.569,-29.181,26.024,-3.605,0.492,5.0,55.3944,23.000013,120.21947,42.651,NaN,0.0,32.0,184.568,0 / 0,29310,2021-03-23 20:21:55:128
-0.04072,0.68224,9.83467,-0.08566,0.6411,9.7853,-8.4E-4,-0.00123,8.5E-4,-6.098,10.83,-29.91,25.837,-3.73,0.494,5.0,56.4969,23.000013,120.21947,42.651,NaN,0.0,32.0,184.568,0 / 0,29411,2021-03-23 20:21:55:229
-0.01677,0.55769,9.73168,-0.08378,0.6441,9.78512,-0.00132,-0.00145,3.1E-4,-5.936,11.092,-29.354,25.917,-3.748,0.502,5.0,56.4969,23.000013,120.21947,42.651,NaN,0.0,32.0,184.568,0 / 0,29511,2021-03-23 20:21:55:329
-0.06227,0.47866,9.70773,-0.08351,0.64182,9.78527,-0.00313,-0.00177,5.0E-5,-6.603,11.074,-30.638,29.2,-3.776,0.505,5.0,56.4969,23.000013,120.21947,42.651,NaN,0.0,32.0,184.568,0 / 0,29611,2021-03-23 20:21:55:429
-0.02874,0.51698,9.8682,-0.08126,0.62212,9.78656,-0.00403,-0.00197,0.00108,-5.431,10.734,-28.511,22.179,-3.753,0.489,5.0,59.1596,23.000013,120.21947,42.651,NaN,0.0,32.0,184.568,0 / 0,29710,2021-03-23 20:21:55:528
-0.09101,0.46908,9.86102,-0.07861,0.6043,9.7877,-0.00573,-0.00208,9.0E-5,-6.397,10.512,-30.833,25.869,-3.533,0.46,5.0,59.1596,23.000013,120.21947,42.651,NaN,0.0,32.0,184.568,0 / 0,29811,2021-03-23 20:21:55:629
-0.10778,0.37088,9.85623,-0.07257,0.55512,9.79066,-0.0065,-0.00214,-1.6E-4,-6.393,10.201,-30.2,27.939,-3.407,0.455,5.0,59.1596,23.000013,120.21947,42.651,NaN,0.0,32.0,184.568,0 / 0,29911,2021-03-23 20:21:55:729
0.00718,0.19604,9.71971,-0.06888,0.49655,9.79383,-0.00588,-0.00176,0.00102,-6.184,12.278,-28.928,24.657,-3.093,0.43,5.0,60.825,23.000013,120.21947,42.651,NaN,0.0,32.0,184.568,0 / 0,30011,2021-03-23 20:21:55:829
-0.03353,0.13856,9.69815,-0.06737,0.46766,9.79526,-0.00669,-0.00215,8.4E-4,-4.785,10.133,-27.417,24.567,-2.902,0.403,5.0,60.825,23.000013,120.21947,42.651,NaN,0.0,32.0,184.568,0 / 0,30111,2021-03-23 20:21:55:929
-0.0958,0.33495,9.93766,-0.06172,0.39483,9.7985,-0.00537,-0.00245,1.5E-4,-6.721,10.689,-29.745,30.318,-2.521,0.376,5.0,60.825,23.000013,120.21947,42.651,NaN,0.0,32.0,184.568,0 / 0,30211,2021-03-23 20:21:56:029
-0.04551,0.24154,9.6287,-0.06157,0.37363,9.79934,0.00284,-0.00186,6.0E-5,-6.341,10.605,-28.935,26.956,-2.307,0.361,5.0,60.0947,23.000013,120.21947,42.651,NaN,0.0,32.0,184.568,0 / 0,30311,2021-03-23 20:21:56:129
-0.07425,0.38046,9.92808,-0.06244,0.37867,9.79914,-0.00529,-0.00339,0.00356,-6.48,10.285,-28.791,29.102,-2.213,0.365,5.0,60.0947,23.000013,120.21947,42.651,NaN,0.0,32.0,184.568,0 / 0,30411,2021-03-23 20:21:56:229
-0.13173,0.47147,9.92329,-0.05855,0.35101,9.80019,-0.00344,-0.00138,0.00225,-6.333,9.553,-27.358,29.299,-2.103,0.346,5.0,60.0947,23.000013,120.21947,42.651,NaN,0.0,32.0,184.568,0 / 0,30511,2021-03-23 20:21:56:329
-0.08622,0.31579,9.88736,-0.05932,0.35231,9.80014,-0.00347,-0.00176,0.0022,-7.105,9.482,-28.413,35.583,-2.107,0.349,5.0,60.0947,23.000013,120.21947,42.651,NaN,0.0,32.0,184.568,0 / 0,30611,2021-03-23 20:21:56:429
-0.12933,0.38046,9.81551,-0.06028,0.34134,9.80052,-0.0039,-6.5E-4,0.00423,-7.824,9.93,-27.701,36.606,-2.059,0.347,5.0,59.4469,23.000013,120.21947,42.651,NaN,0.0,32.0,184.568,0 / 0,30711,2021-03-23 20:21:56:529
-0.05988,0.2607,9.63588,-0.06804,0.34319,9.80041,-0.00232,-8.5E-4,0.00705,-4.922,10.916,-27.731,23.422,-2.017,0.386,5.0,59.4469,23.000013,120.21947,42.651,NaN,0.0,32.0,184.568,0 / 0,30810,2021-03-23 20:21:56:628
-0.10538,0.41159,9.93287,-0.07545,0.33617,9.8006,-0.00342,-0.0017,0.00822,-5.694,9.654,-26.799,29.497,-2.006,0.398,5.0,59.4469,23.000013,120.21947,42.651,NaN,0.0,32.0,184.568,0 / 0,30911,2021-03-23 20:21:56:729
-0.11257,0.26789,9.60714,-0.07775,0.33752,9.80053,-0.00128,-0.00263,0.01128,-7.213,10.697,-28.203,31.135,-1.972,0.455,5.0,58.5899,23.000013,120.21947,42.651,NaN,0.0,32.0,184.568,0 / 0,31011,2021-03-23 20:21:56:829
-0.05988,0.31579,9.70773,-0.08135,0.33824,9.80048,-0.00325,-0.00289,0.01331,-6.068,10.61,-27.643,27.518,-1.969,0.466,5.0,58.5899,23.000013,120.21947,42.651,NaN,0.0,32.0,184.568,0 / 0,31112,2021-03-23 20:21:56:930
-0.06467,0.27508,9.76043,-0.07882,0.33734,9.80053,-0.00191,-0.00295,0.01477,-6.215,9.617,-27.064,29.684,-1.963,0.474,5.0,58.5899,23.000013,120.21947,42.651,NaN,0.0,32.0,184.568,0 / 0,31212,2021-03-23 20:21:57:030
-0.07185,0.24633,9.66462,-0.08008,0.33812,9.80049,-0.00384,-0.00266,0.01735,-7.433,9.813,-30.48,33.298,-1.971,0.461,5.0,59.4226,23.000013,120.21947,42.651,NaN,0.0,32.0,184.568,0 / 0,31311,2021-03-23 20:21:57:129
-0.19161,0.34214,9.83467,-0.08021,0.33104,9.80073,-9.7E-4,7.9E-4,0.02182,-8.002,11.038,-29.091,34.522,-1.948,0.471,5.0,59.4226,23.000013,120.21947,42.651,NaN,0.0,32.0,184.568,0 / 0,31411,2021-03-23 20:21:57:229
-0.08862,0.43076,9.84186,-0.09264,0.32415,9.80085,7.2E-4,-3.8E-4,0.02656,-7.599,9.825,-26.111,37.072,-1.934,0.469,5.0,59.4226,23.000013,120.21947,42.651,NaN,0.0,32.0,184.568,0 / 0,31511,2021-03-23 20:21:57:329
-0.17484,0.29663,9.75563,-0.10028,0.32815,9.80065,-6.3E-4,0.0012,0.03395,-8.253,9.916,-28.192,37.17,-1.918,0.586,5.0,59.4226,23.000013,120.21947,42.651,NaN,0.0,32.0,184.568,0 / 0,31611,2021-03-23 20:21:57:429
-0.20598,0.20322,9.66223,-0.12259,0.32613,9.80046,2.9E-4,-0.0024,0.03903,-8.587,10.017,-27.818,40.448,-1.931,0.659,5.0,61.3533,23.000013,120.21947,42.651,NaN,0.0,32.0,184.568,0 / 0,31711,2021-03-23 20:21:57:529
-0.34489,0.22238,9.75803,-0.14969,0.32232,9.80021,0.00311,-0.00235,0.05174,-7.99,9.66,-26.222,37.631,-1.904,0.814,5.0,61.3533,23.000013,120.21947,42.651,NaN,0.0,32.0,184.568,0 / 0,31810,2021-03-23 20:21:57:628
-0.27304,0.38046,9.89694,-0.16747,0.31643,9.80011,0.00177,-0.00464,0.06057,-7.073,10.905,-28.312,31.945,-1.883,0.875,5.0,61.3533,23.000013,120.21947,42.651,NaN,0.0,32.0,184.568,0 / 0,31911,2021-03-23 20:21:57:729
-0.36884,0.39004,9.9688,-0.17341,0.31287,9.80012,0.00109,-0.00214,0.07457,-7.443,10.199,-27.586,34.464,-1.849,0.979,5.0,61.7187,23.000013,120.21947,42.651,NaN,0.0,32.0,184.568,0 / 0,32011,2021-03-23 20:21:57:829
-0.08383,0.28945,9.70534,-0.17471,0.32215,9.7998,0.0015,6.1E-4,0.08234,-8.926,9.942,-26.697,41.131,-1.828,1.014,5.0,61.7187,23.000013,120.21947,42.651,NaN,0.0,32.0,184.568,0 / 0,32111,2021-03-23 20:21:57:929
-0.23232,0.32777,9.69336,-0.17635,0.32356,9.79972,0.00678,0.00922,0.10011,-9.376,11.328,-26.845,38.603,-1.891,1.031,5.0,61.7187,23.000013,120.21947,42.651,NaN,0.0,32.0,184.568,0 / 0,32210,2021-03-23 20:21:58:028
-0.42153,0.42597,9.86581,-0.18665,0.34782,9.7987,0.00676,0.01486,0.10949,-8.312,10.495,-27.099,37.881,-1.97,1.049,5.0,62.2517,23.000013,120.21947,42.651,NaN,0.0,32.0,184.568,0 / 0,32311,2021-03-23 20:21:58:129
-0.22035,0.39483,9.65504,-0.21464,0.37,9.79732,0.00375,0.00931,0.12422,-8.915,10.334,-26.887,40.994,-2.093,1.142,5.0,62.2517,23.000013,120.21947,42.651,NaN,0.0,32.0,184.568,0 / 0,32411,2021-03-23 20:21:58:229
-0.21795,0.50261,9.8203,-0.22072,0.38101,9.79676,0.00353,0.00756,0.13084,-9.468,11.337,-29.143,38.573,-2.162,1.255,5.0,62.2517,23.000013,120.21947,42.651,NaN,0.0,32.0,184.568,0 / 0,32511,2021-03-23 20:21:58:329
-0.17484,0.50979,9.68857,-0.21438,0.40594,9.7959,-0.00141,0.00535,0.14931,-9.257,10.702,-28.27,38.455,-2.309,1.269,5.0,62.1868,23.000013,120.21947,42.651,NaN,0.0,32.0,184.568,0 / 0,32611,2021-03-23 20:21:58:429
-0.10778,0.44273,9.66941,-0.20778,0.41667,9.79559,-0.00508,0.00374,0.15541,-9.101,12.012,-28.497,36.181,-2.372,1.254,5.0,62.1868,23.000013,120.21947,42.651,NaN,0.0,32.0,184.568,0 / 0,32711,2021-03-23 20:21:58:529
-0.14371,0.55051,9.95922,-0.2021,0.41863,9.79563,-0.00153,0.00451,0.17061,-8.559,11.683,-28.806,35.978,-2.447,1.182,5.0,62.1868,23.000013,120.21947,42.651,NaN,0.0,32.0,184.568,0 / 0,32811,2021-03-23 20:21:58:629
-0.03114,0.39962,9.69097,-0.18863,0.42936,9.79543,-7.0E-4,0.00497,0.17899,-10.098,11.283,-30.889,40.752,-2.455,1.125,5.0,62.1868,23.000013,120.21947,42.651,NaN,0.0,32.0,184.568,0 / 0,32912,2021-03-23 20:21:58:730
-0.05269,0.38285,9.57361,-0.16082,0.43563,9.79565,-0.00187,0.01038,0.19493,-8.228,12.674,-30.967,30.811,-2.542,1.04,5.0,61.7318,23.000013,120.21947,42.651,NaN,0.0,32.0,184.568,0 / 0,33011,2021-03-23 20:21:58:829
-0.12454,0.57925,9.82749,-0.1531,0.44135,9.79552,-0.00299,0.01446,0.20229,-9.24,12.863,-29.81,33.549,-2.546,0.941,5.0,61.7318,23.000013,120.21947,42.651,NaN,0.0,32.0,184.568,0 / 0,33111,2021-03-23 20:21:58:929
-0.03114,0.59362,9.94006,-0.13457,0.45625,9.79511,-0.00145,0.01715,0.21531,-10.541,12.098,-30.624,40.546,-2.604,0.841,5.0,61.7318,23.000013,120.21947,42.651,NaN,0.0,32.0,184.568,0 / 0,33211,2021-03-23 20:21:59:029
0.07425,0.53374,9.83946,-0.10866,0.47268,9.79465,-0.00186,0.02104,0.22059,-9.178,13.087,-33.283,33.072,-2.667,0.787,5.0,61.0273,23.000013,120.21947,42.651,NaN,0.0,32.0,184.568,0 / 0,33310,2021-03-23 20:21:59:128
0.05509,0.48105,9.75085,-0.09497,0.47775,9.79455,-0.00109,0.02215,0.23152,-10.763,13.68,-34.413,35.928,-2.792,0.556,5.0,61.0273,23.000013,120.21947,42.651,NaN,0.0,32.0,184.568,0 / 0,33411,2021-03-23 20:21:59:229
-0.25627,0.58165,9.69336,-0.09808,0.49372,9.79372,-5.2E-4,0.01765,0.2382,-10.419,13.604,-34.859,33.312,-2.866,0.551,5.0,61.0273,23.000013,120.21947,42.651,NaN,0.0,32.0,184.568,0 / 0,33511,2021-03-23 20:21:59:329
-0.02874,0.7014,9.99754,-0.11166,0.51472,9.7925,5.1E-4,0.00386,0.25037,-10.658,16.629,-35.588,31.182,-2.961,0.632,5.0,60.7907,23.000013,120.21947,42.651,NaN,0.0,32.0,184.568,0 / 0,33611,2021-03-23 20:21:59:429
0.20837,0.6032,9.85144,-0.09209,0.52414,9.7922,0.00202,0.00144,0.25522,-11.206,15.643,-34.164,32.672,-3.009,0.653,5.0,60.7907,23.000013,120.21947,42.651,NaN,0.0,32.0,184.568,0 / 0,33710,2021-03-23 20:21:59:528
0.28501,0.67745,9.69815,-0.0373,0.54193,9.79159,0.00524,0.0047,0.26406,-11.835,17.721,-35.454,31.663,-3.129,0.426,5.0,60.7907,23.000013,120.21947,42.651,NaN,0.0,32.0,184.568,0 / 0,33812,2021-03-23 20:21:59:630
0.22035,0.699,9.54247,0.02637,0.57055,9.79,0.00511,0.00755,0.26677,-12.817,18.35,-36.958,33.288,-3.168,0.218,5.0,61.4809,23.000013,120.21947,42.651,NaN,0.0,32.0,184.568,0 / 0,33910,2021-03-23 20:21:59:728
0.15568,0.75409,9.60235,0.05043,0.5855,9.78903,-0.00236,9.5E-4,0.26995,-10.946,19.364,-36.985,27.039,-3.423,-0.295,5.0,61.4809,23.000013,120.21947,42.651,NaN,0.0,32.0,184.568,0 / 0,34011,2021-03-23 20:21:59:829
0.23711,0.9433,9.92569,0.08961,0.63326,9.78577,-0.00413,-0.0018,0.27135,-12.619,18.509,-35.724,31.003,-3.569,-0.404,5.0,61.4809,23.000013,120.21947,42.651,NaN,0.0,32.0,184.568,0 / 0,34111,2021-03-23 20:21:59:929
0.45985,0.82594,9.8203,0.15174,0.67756,9.78204,-0.00177,0.0038,0.27148,-12.008,20.671,-37.841,26.137,-3.832,-0.704,5.0,61.4809,23.000013,120.21947,42.651,NaN,0.0,32.0,184.568,0 / 0,34211,2021-03-23 20:22:00:029
0.40956,0.74691,9.61672,0.18578,0.69346,9.78034,-0.00587,0.00838,0.26963,-12.299,20.459,-37.527,26.796,-3.962,-0.889,5.0,60.4622,23.000013,120.21947,42.651,NaN,0.0,32.0,184.568,0 / 0,34311,2021-03-23 20:22:00:129
0.36645,0.77565,9.66941,0.2458,0.71164,9.77771,-0.00905,0.01788,0.26943,-11.614,21.922,-38.154,24.235,-4.127,-1.326,5.0,60.4622,23.000013,120.21947,42.651,NaN,0.0,32.0,184.568,0 / 0,34411,2021-03-23 20:22:00:229
0.36166,0.7517,9.90892,0.28986,0.71123,9.77653,-0.01154,0.02607,0.26438,-12.238,23.011,-39.84,23.024,-4.161,-1.44,5.0,60.4622,23.000013,120.21947,42.651,NaN,0.0,32.0,184.568,0 / 0,34511,2021-03-23 20:22:00:329
0.2898,0.70379,9.69097,0.29979,0.70202,9.7769,-0.01136,0.02612,0.25694,-12.583,24.896,-40.524,22.817,-4.105,-1.756,5.0,63.4404,23.000013,120.21947,42.651,NaN,0.0,32.0,184.568,0 / 0,34611,2021-03-23 20:22:00:429
0.14131,0.80678,9.8203,0.30982,0.6872,9.77764,-0.00859,0.02753,0.25698,-12.52,24.646,-39.868,22.883,-4.038,-1.816,5.0,63.4404,23.000013,120.21947,42.651,NaN,0.0,32.0,184.568,0 / 0,34711,2021-03-23 20:22:00:529
0.388,0.7996,9.8227,0.2919,0.68751,9.77817,-0.00922,0.02322,0.25176,-10.244,27.428,-40.936,16.355,-4.015,-1.737,5.0,63.4404,23.000013,120.21947,42.651,NaN,0.0,32.0,184.568,0 / 0,34811,2021-03-23 20:22:00:629
0.41914,0.66308,9.59756,0.29221,0.68911,9.77804,-0.00766,0.02363,0.2472,-10.69,27.183,-40.6,18.138,-4.02,-1.71,5.0,62.2894,23.000013,120.21947,42.651,NaN,0.0,32.0,184.568,0 / 0,34912,2021-03-23 20:22:00:730
0.27064,0.83792,9.75324,0.30177,0.67826,9.77851,-0.00512,0.02489,0.245,-10.54,29.226,-42.363,16.951,-3.998,-1.744,5.0,62.2894,23.000013,120.21947,42.651,NaN,0.0,32.0,184.568,0 / 0,35011,2021-03-23 20:22:00:829
0.22514,0.91696,9.88497,0.28946,0.69937,9.7774,-0.00611,0.02577,0.24038,-9.834,28.789,-43.306,15.192,-3.966,-1.768,5.0,62.2894,23.000013,120.21947,42.651,NaN,0.0,32.0,184.568,0 / 0,35111,2021-03-23 20:22:00:929
0.23951,0.90738,9.82749,0.28482,0.70488,9.77714,-0.0046,0.01355,0.23188,-9.894,30.612,-43.026,14.41,-4.122,-1.669,5.0,62.9299,23.000013,120.21947,42.651,NaN,0.0,32.0,184.568,0 / 0,35212,2021-03-23 20:22:01:030
0.25148,0.74212,9.56403,0.27081,0.72831,9.77582,-0.00391,0.01227,0.22801,-9.717,30.916,-45.112,14.347,-4.197,-1.581,5.0,62.9299,23.000013,120.21947,42.651,NaN,0.0,32.0,184.568,0 / 0,35310,2021-03-23 20:22:01:128
0.26585,0.63194,9.59037,0.27161,0.73578,9.77524,-0.00605,0.01355,0.22282,-9.586,32.835,-44.815,13.512,-4.291,-1.623,5.0,62.9299,23.000013,120.21947,42.651,NaN,0.0,32.0,184.568,0 / 0,35411,2021-03-23 20:22:01:229
0.17484,0.73014,9.7748,0.27552,0.7279,9.77572,-0.00411,0.0143,0.21805,-9.852,33.868,-45.464,13.197,-4.303,-1.592,5.0,62.9299,23.000013,120.21947,42.651,NaN,0.0,32.0,184.568,0 / 0,35511,2021-03-23 20:22:01:329
0.12215,0.77565,9.76043,0.26085,0.71796,9.77685,-0.00548,0.00858,0.21631,-9.028,33.061,-44.431,12.107,-4.244,-1.608,5.0,62.2224,23.000013,120.21947,42.651,NaN,0.0,32.0,184.568,0 / 0,35611,2021-03-23 20:22:01:429
0.29459,0.64871,9.81791,0.24813,0.71277,9.77756,-0.00402,0.00896,0.21461,-9.572,33.429,-45.211,13.649,-4.198,-1.528,5.0,62.2224,23.000013,120.21947,42.651,NaN,0.0,32.0,184.568,0 / 0,35711,2021-03-23 20:22:01:529
0.32573,0.66787,9.81791,0.25175,0.70278,9.7782,6.0E-4,0.00674,0.20612,-6.937,34.749,-45.736,8.695,-4.136,-1.432,5.0,62.2224,23.000013,120.21947,42.651,NaN,0.0,32.0,184.568,0 / 0,35812,2021-03-23 20:22:01:630
0.17005,0.70619,9.71971,0.25673,0.70266,9.77807,0.00351,0.00919,0.20481,-7.761,36.026,-46.037,9.856,-4.11,-1.475,5.0,61.0334,23.000013,120.21947,42.651,NaN,0.0,32.0,184.568,0 / 0,35911,2021-03-23 20:22:01:729
0.13412,0.70379,9.92329,0.2591,0.70887,9.77756,-4.8E-4,0.01379,0.20365,-6.954,35.982,-46.193,8.393,-4.126,-1.507,5.0,61.0334,23.000013,120.21947,42.651,NaN,0.0,32.0,184.568,0 / 0,36011,2021-03-23 20:22:01:829
0.2922,0.76607,9.89934,0.24724,0.70489,9.77816,-3.0E-4,0.01211,0.20041,-7.468,36.192,-45.241,8.43,-4.145,-1.518,5.0,61.0334,23.000013,120.21947,42.651,NaN,0.0,32.0,184.568,0 / 0,36112,2021-03-23 20:22:01:930
0.30417,0.78523,9.60954,0.24283,0.70652,9.77815,0.00332,0.01511,0.19634,-6.92,36.751,-46.04,8.259,-4.106,-1.446,5.0,59.4736,23.000013,120.21947,42.651,NaN,0.0,32.0,184.568,0 / 0,36212,2021-03-23 20:22:02:030
0.12933,0.76846,9.79396,0.24689,0.72145,9.77696,0.00242,0.02019,0.19358,-7.411,37.333,-45.903,8.282,-4.131,-1.423,5.0,59.4736,23.000013,120.21947,42.651,NaN,0.0,32.0,184.568,0 / 0,36312,2021-03-23 20:22:02:130
0.08143,0.87385,9.80114,0.23642,0.73507,9.7762,0.00402,0.01917,0.18692,-6.178,37.0,-46.998,6.81,-4.257,-1.431,5.0,59.4736,23.000013,120.21947,42.651,NaN,0.0,32.0,184.568,0 / 0,36412,2021-03-23 20:22:02:230
0.20598,0.8451,9.81072,0.22218,0.74679,9.77565,0.0038,0.0174,0.1845,-4.779,39.423,-48.384,5.161,-4.299,-1.385,5.0,61.1747,23.000013,120.21947,42.651,NaN,0.0,32.0,184.568,0 / 0,36511,2021-03-23 20:22:02:329
0.27304,0.78762,9.80354,0.20686,0.76708,9.77441,0.00322,0.01203,0.17796,-5.881,39.992,-47.268,6.545,-4.44,-1.225,5.0,61.1747,23.000013,120.21947,42.651,NaN,0.0,32.0,184.568,0 / 0,36611,2021-03-23 20:22:02:429
0.25627,0.8475,9.66462,0.21653,0.78121,9.77309,0.00416,0.01259,0.17192,-6.234,37.885,-46.435,6.906,-4.486,-1.212,5.0,61.1747,23.000013,120.21947,42.651,NaN,0.0,32.0,184.568,0 / 0,36711,2021-03-23 20:22:02:529
0.32573,1.03671,9.68378,0.22535,0.78852,9.7723,0.00359,0.01251,0.16218,-3.818,39.549,-46.527,3.879,-4.569,-1.269,5.0,61.1747,23.000013,120.21947,42.651,NaN,0.0,32.0,184.568,0 / 0,36811,2021-03-23 20:22:02:629
0.27783,1.15167,9.6742,0.23757,0.83758,9.76793,0.00339,0.01185,0.15623,-5.066,39.914,-46.483,5.164,-4.612,-1.321,5.0,60.3929,23.000013,120.21947,42.651,NaN,0.0,32.0,184.568,0 / 0,36911,2021-03-23 20:22:02:729
0.20358,1.16844,9.76282,0.23702,0.87154,9.76497,-0.00208,0.01031,0.14287,-4.247,38.709,-47.108,3.8,-5.099,-1.39,5.0,60.3929,23.000013,120.21947,42.651,NaN,0.0,32.0,184.568,0 / 0,37011,2021-03-23 20:22:02:829
0.2898,1.0918,9.88497,0.24328,0.92028,9.76034,-0.00266,0.0085,0.13383,-4.155,41.117,-47.079,3.596,-5.259,-1.416,5.0,60.3929,23.000013,120.21947,42.651,NaN,0.0,32.0,184.568,0 / 0,37111,2021-03-23 20:22:02:929
0.37363,1.05108,9.5281,0.26313,0.94831,9.75714,-2.9E-4,0.00682,0.11397,-3.059,40.217,-47.524,2.264,-5.465,-1.485,5.0,61.5581,23.000013,120.21947,42.651,NaN,0.0,32.0,184.568,0 / 0,37210,2021-03-23 20:22:03:028
0.18442,0.95288,9.5784,0.27178,0.9732,9.75446,-2.4E-4,0.00965,0.10735,-2.883,40.748,-46.258,2.225,-5.549,-1.545,5.0,61.5581,23.000013,120.21947,42.651,NaN,0.0,32.0,184.568,0 / 0,37311,2021-03-23 20:22:03:129
0.12215,0.97444,9.8682,0.25981,0.97788,9.75431,-0.00397,0.01044,0.09603,-3.294,41.005,-45.9,2.168,-5.695,-1.596,5.0,61.5581,23.000013,120.21947,42.651,NaN,0.0,32.0,184.568,0 / 0,37411,2021-03-23 20:22:03:229
0.01916,0.90259,9.83946,0.23323,0.95939,9.75682,-0.00285,0.01034,0.09069,-3.449,41.364,-47.548,2.162,-5.723,-1.526,5.0,60.5466,23.000013,120.21947,42.651,NaN,0.0,32.0,184.568,0 / 0,37511,2021-03-23 20:22:03:329
0.12694,0.66308,9.75085,0.19949,0.91999,9.76136,-0.00341,0.00658,0.08542,-2.801,41.469,-46.987,2.487,-5.534,-1.256,5.0,60.5466,23.000013,120.21947,42.651,NaN,0.0,32.0,184.568,0 / 0,37611,2021-03-23 20:22:03:429
0.0958,0.57686,9.71013,0.18659,0.89409,9.76403,-0.00324,0.00729,0.08269,-3.909,40.322,-45.617,3.964,-5.383,-1.171,5.0,60.5466,23.000013,120.21947,42.651,NaN,0.0,32.0,184.568,0 / 0,37712,2021-03-23 20:22:03:530
0.06946,0.72056,9.8203,0.15686,0.84385,9.76902,-0.00244,0.00466,0.07741,-2.909,41.308,-45.883,2.814,-5.097,-0.986,5.0,59.6612,23.000013,120.21947,42.651,NaN,0.0,32.0,184.568,0 / 0,37812,2021-03-23 20:22:03:630
0.07425,0.69421,9.74126,0.13285,0.80994,9.77224,-0.00105,0.00368,0.07548,-2.575,42.423,-47.09,2.801,-4.936,-0.92,5.0,59.6612,23.000013,120.21947,42.651,NaN,0.0,32.0,184.568,0 / 0,37911,2021-03-23 20:22:03:729
-0.0024,0.67984,9.70294,0.12529,0.79912,9.77323,-0.00141,0.00486,0.07239,-2.334,41.37,-45.415,1.784,-4.737,-0.779,5.0,59.6612,23.000013,120.21947,42.651,NaN,0.0,32.0,184.568,0 / 0,38011,2021-03-23 20:22:03:829
0.02874,0.79241,9.99035,0.10468,0.78687,9.77447,-0.00152,0.00416,0.0718,-0.851,42.751,-47.371,0.488,-4.674,-0.735,5.0,59.6612,23.000013,120.21947,42.651,NaN,0.0,32.0,184.568,0 / 0,38111,2021-03-23 20:22:03:929
0.04551,0.67984,9.6263,0.09289,0.77504,9.77553,-4.0E-4,0.00616,0.06867,-1.114,42.071,-46.969,0.659,-4.551,-0.579,5.0,59.7827,23.000013,120.21947,42.651,NaN,0.0,32.0,184.568,0 / 0,38210,2021-03-23 20:22:04:028
-0.09341,0.79481,9.88497,0.08494,0.77124,9.77591,-1.5E-4,0.00622,0.0676,-2.051,40.943,-45.792,2.011,-4.533,-0.544,5.0,59.7827,23.000013,120.21947,42.651,NaN,0.0,32.0,184.568,0 / 0,38311,2021-03-23 20:22:04:129
-0.05748,0.77086,9.61912,0.06038,0.76853,9.7763,9.0E-5,0.00391,0.06811,-0.715,41.126,-45.81,0.832,-4.485,-0.441,5.0,59.7827,23.000013,120.21947,42.651,NaN,0.0,32.0,184.568,0 / 0,38411,2021-03-23 20:22:04:229
-0.11017,0.91935,9.86341,0.03785,0.78884,9.7748,3.9E-4,0.00185,0.06727,-0.328,42.086,-48.022,359.628,-4.495,-0.354,5.0,63.7371,23.000013,120.21947,42.651,NaN,0.0,32.0,184.568,0 / 0,38511,2021-03-23 20:22:04:329
0.00239,0.93851,9.79635,0.02959,0.79768,9.77411,-6.6E-4,-0.00225,0.0661,-0.128,41.757,-47.118,359.772,-4.614,-0.222,5.0,63.7371,23.000013,120.21947,42.651,NaN,0.0,32.0,184.568,0 / 0,38611,2021-03-23 20:22:04:429
0.10299,0.8475,9.68378,0.03508,0.8139,9.77275,-0.00141,-6.9E-4,0.06413,0.042,42.278,-45.762,359.825,-4.666,-0.173,5.0,63.7371,23.000013,120.21947,42.651,NaN,0.0,32.0,184.568,0 / 0,38711,2021-03-23 20:22:04:529
0.02635,0.82594,9.73887,0.03685,0.82384,9.77191,-0.00259,-2.7E-4,0.06067,-0.677,42.339,-46.724,1.055,-4.785,-0.191,5.0,63.2603,23.000013,120.21947,42.651,NaN,0.0,32.0,184.568,0 / 0,38811,2021-03-23 20:22:04:629
-0.01198,0.92893,9.85623,0.03914,0.83245,9.77118,-0.00204,0.00129,0.0598,-0.745,43.124,-46.525,1.007,-4.819,-0.216,5.0,63.2603,23.000013,120.21947,42.651,NaN,0.0,32.0,184.568,0 / 0,38911,2021-03-23 20:22:04:729
-0.05269,0.92893,9.79396,0.03753,0.83861,9.77066,-4.2E-4,0.00139,0.05814,-0.608,41.241,-47.2,1.036,-4.878,-0.23,5.0,63.2603,23.000013,120.21947,42.651,NaN,0.0,32.0,184.568,0 / 0,39011,2021-03-23 20:22:04:829
0.07185,0.88822,9.80114,0.03108,0.8446,9.77016,-0.0026,6.6E-4,0.0566,0.34,43.486,-46.122,359.784,-4.906,-0.22,5.0,63.0635,23.000013,120.21947,42.651,NaN,0.0,32.0,184.568,0 / 0,39111,2021-03-23 20:22:04:929
0.08622,0.91456,9.68378,0.03336,0.84928,9.76975,4.0E-5,0.00122,0.05303,0.892,42.928,-47.613,358.581,-4.968,-0.196,5.0,63.0635,23.000013,120.21947,42.651,NaN,0.0,32.0,184.568,0 / 0,39211,2021-03-23 20:22:05:029
0.02635,1.20676,9.65504,0.04359,0.87716,9.76724,0.00259,0.00154,0.0506,-0.256,42.971,-44.78,359.812,-4.968,-0.196,5.0,63.0635,23.000013,120.21947,42.651,NaN,0.0,32.0,184.568,0 / 0,39311,2021-03-23 20:22:05:129
0.01197,1.5277,9.82749,0.0518,0.94646,9.76073,0.00193,1.2E-4,0.04207,1.431,43.37,-47.637,358.489,-5.32,-0.295,5.0,63.0635,23.000013,120.21947,42.651,NaN,0.0,32.0,184.568,0 / 0,39411,2021-03-23 20:22:05:229
0.20837,1.71691,9.78677,0.05817,1.00031,9.75533,0.00429,-0.00422,0.03572,2.329,43.296,-46.504,357.279,-5.538,-0.304,5.0,61.8962,23.000013,120.21947,42.651,NaN,0.0,32.0,184.568,0 / 0,39511,2021-03-23 20:22:05:329
0.26106,1.7744,9.6263,0.08311,1.14323,9.73943,0.00822,-0.00468,0.01957,0.956,43.586,-47.258,358.442,-6.262,-0.401,5.0,61.8962,23.000013,120.21947,42.651,NaN,0.0,32.0,184.568,0 / 0,39611,2021-03-23 20:22:05:429
0.26825,1.8702,9.576,0.101,1.21762,9.73024,0.00662,-0.00479,0.01098,0.85,43.902,-46.881,358.368,-6.695,-0.489,5.0,61.8962,23.000013,120.21947,42.651,NaN,0.0,32.0,184.568,0 / 0,39711,2021-03-23 20:22:05:529
-0.02156,0.81397,9.59517,0.13416,1.36845,9.70978,-0.00209,0.00575,-0.00507,-0.338,43.874,-46.987,359.258,-8.021,-0.792,5.0,60.8325,23.000013,120.21947,42.651,NaN,0.0,32.0,184.568,0 / 0,39811,2021-03-23 20:22:05:629
-0.06706,0.41878,10.06939,0.11897,1.3406,9.71386,-0.01052,0.01689,0.0016,-0.5,43.142,-46.171,0.426,-8.021,-0.792,5.0,60.8325,23.000013,120.21947,42.651,NaN,0.0,32.0,184.568,0 / 0,39911,2021-03-23 20:22:05:729
-0.06467,0.82834,10.07897,0.10208,1.29713,9.71995,-0.00163,-2.7E-4,-0.00308,-0.319,43.464,-47.978,359.384,-7.703,-0.63,5.0,60.8325,23.000013,120.21947,42.651,NaN,0.0,32.0,184.568,0 / 0,40011,2021-03-23 20:22:05:829
-0.19161,0.8451,9.51373,0.09919,1.29027,9.72089,0.00404,-0.00608,-0.00723,0.838,43.53,-46.423,358.291,-7.601,-0.602,5.0,60.9469,23.000013,120.21947,42.651,NaN,0.0,32.0,184.568,0 / 0,40111,2021-03-23 20:22:05:929
0.09341,0.80918,9.35805,0.09795,1.28146,9.72207,-0.00295,-0.003,0.00637,1.152,43.695,-46.382,358.316,-7.543,-0.573,5.0,60.9469,23.000013,120.21947,42.651,NaN,0.0,32.0,184.568,0 / 0,40211,2021-03-23 20:22:06:029
0.07185,0.84989,9.89694,0.10627,1.15845,9.73741,-0.00208,-0.0026,-0.00181,1.922,43.454,-46.209,357.101,-7.508,-0.577,5.0,60.9469,23.000013,120.21947,42.651,NaN,0.0,32.0,184.568,0 / 0,40310,2021-03-23 20:22:06:128
-0.08862,1.08461,9.82988,0.09743,1.11733,9.7423,8.7E-4,0.0036,8.6E-4,0.832,42.916,-47.354,358.249,-6.542,-0.573,5.0,62.4769,23.000013,120.21947,42.651,NaN,0.0,32.0,184.568,0 / 0,40414,2021-03-23 20:22:06:232
-0.04311,0.87385,9.51134,0.0502,1.07598,9.74731,0.00181,9.8E-4,0.00431,1.341,44.187,-48.06,358.276,-6.542,-0.573,5.0,62.4769,23.000013,120.21947,42.651,NaN,0.0,32.0,184.568,0 / 0,40511,2021-03-23 20:22:06:329
-0.17484,0.67745,9.79156,0.03778,1.01429,9.75398,-0.00125,-0.00135,-0.00425,0.861,43.683,-47.417,358.581,-6.121,-0.254,5.0,62.4769,23.000013,120.21947,42.651,NaN,0.0,32.0,184.568,0 / 0,40611,2021-03-23 20:22:06:429
-0.07904,0.61039,9.75563,0.02387,0.98067,9.75746,-8.5E-4,2.0E-4,3.6E-4,1.45,43.552,-46.78,358.607,-5.937,-0.222,5.0,62.4769,23.000013,120.21947,42.651,NaN,0.0,32.0,184.568,0 / 0,40711,2021-03-23 20:22:06:529
-0.10299,0.89061,9.8203,0.00643,0.93345,9.76212,4.3E-4,-0.00107,-4.1E-4,-0.098,43.109,-47.663,359.92,-5.577,-0.079,5.0,62.3877,23.000013,120.21947,42.651,NaN,0.0,32.0,184.568,0 / 0,40811,2021-03-23 20:22:06:629
-0.11017,0.84989,9.77719,0.00361,0.9148,9.76389,-0.00109,-0.00136,-0.00316,1.008,43.48,-47.197,358.751,-5.462,-0.038,5.0,62.3877,23.000013,120.21947,42.651,NaN,0.0,32.0,184.568,0 / 0,40911,2021-03-23 20:22:06:729
-0.02874,0.77086,9.72689,-0.01366,0.90141,9.76512,-0.00222,-8.4E-4,0.00161,1.013,44.486,-46.399,358.884,-5.274,0.08,5.0,62.3877,23.000013,120.21947,42.651,NaN,0.0,32.0,184.568,0 / 0,41011,2021-03-23 20:22:06:829
0.01437,0.93133,9.87779,-0.01584,0.88575,9.76656,-0.00199,-0.00266,-3.8E-4,0.385,42.955,-47.429,0.08,-5.274,0.08,5.0,59.5312,23.000013,120.21947,42.651,NaN,0.0,32.0,184.568,0 / 0,41112,2021-03-23 20:22:06:930
0.01677,0.98881,9.59277,-0.00843,0.8876,9.7664,3.3E-4,-0.0029,-0.00573,1.392,43.798,-46.849,358.884,-5.176,0.078,5.0,59.5312,23.000013,120.21947,42.651,NaN,0.0,32.0,184.568,0 / 0,41212,2021-03-23 20:22:07:030
0.06227,1.12533,9.60235,-0.00678,0.90158,9.76512,0.00268,-0.00187,-0.00607,0.67,43.773,-47.445,358.857,-5.193,0.049,5.0,59.5312,23.000013,120.21947,42.651,NaN,0.0,32.0,184.568,0 / 0,41311,2021-03-23 20:22:07:129
0.06467,1.3816,9.83946,0.00292,0.95635,9.75991,0.00613,-0.00285,-0.01417,-0.238,43.381,-47.73,0.028,-5.415,0.027,5.0,60.3602,23.000013,120.21947,42.651,NaN,0.0,32.0,184.568,0 / 0,41411,2021-03-23 20:22:07:229
0.06946,1.49896,9.83228,0.01868,1.03936,9.7514,0.00753,-0.00444,-0.01984,0.16,42.424,-46.239,359.983,-5.596,-0.017,5.0,60.3602,23.000013,120.21947,42.651,NaN,0.0,32.0,184.568,0 / 0,41511,2021-03-23 20:22:07:329
0.13412,1.57321,9.88736,0.02999,1.08704,9.74617,0.00889,-0.0044,-0.02443,0.233,43.509,-47.362,359.831,-6.364,-0.176,5.0,60.3602,23.000013,120.21947,42.651,NaN,0.0,32.0,184.568,0 / 0,41611,2021-03-23 20:22:07:429
0.1461,1.57321,9.78438,0.05226,1.18923,9.73414,0.00689,-0.0035,-0.03772,-1.203,42.65,-46.684,1.022,-6.364,-0.176,5.0,63.4761,23.000013,120.21947,42.651,NaN,0.0,32.0,184.568,0 / 0,41711,2021-03-23 20:22:07:529
-0.01916,1.24029,9.49218,0.06171,1.27674,9.72299,0.00214,-0.00285,-0.05227,0.324,43.84,-46.326,359.674,-7.239,-0.35,5.0,63.4761,23.000013,120.21947,42.651,NaN,0.0,32.0,184.568,0 / 0,41811,2021-03-23 20:22:07:629
-0.0024,1.0894,9.6287,0.05592,1.28686,9.72169,-0.00448,4.1E-4,-0.05476,-0.314,43.454,-47.434,359.649,-7.481,-0.364,5.0,63.4761,23.000013,120.21947,42.651,NaN,0.0,32.0,184.568,0 / 0,41911,2021-03-23 20:22:07:729
0.16766,1.41753,9.92569,0.03248,1.2637,9.72483,2.0E-5,-0.00653,-0.05846,-0.491,41.616,-46.207,359.779,-7.474,-0.229,5.0,63.4761,23.000013,120.21947,42.651,NaN,0.0,32.0,184.568,0 / 0,42011,2021-03-23 20:22:07:829
0.05269,1.29777,9.66941,0.03116,1.28943,9.72146,0.00682,-0.00259,-0.06412,-0.67,43.004,-48.513,0.979,-7.404,-0.191,5.0,62.3684,23.000013,120.21947,42.651,NaN,0.0,32.0,184.568,0 / 0,42111,2021-03-23 20:22:07:929
-0.21795,1.27143,9.50176,0.0183,1.29499,9.72075,0.00123,0.00362,-0.05847,1.386,42.619,-45.729,358.722,-7.588,-0.108,5.0,62.3684,23.000013,120.21947,42.651,NaN,0.0,32.0,184.568,0 / 0,42211,2021-03-23 20:22:08:029
-0.33052,1.40555,9.71971,-0.04066,1.30376,9.71951,0.00162,0.00374,-0.05455,-0.634,41.415,-45.327,1.126,-7.588,-0.108,5.0,62.3684,23.000013,120.21947,42.651,NaN,0.0,32.0,184.568,0 / 0,42312,2021-03-23 20:22:08:130
-0.4407,1.38639,9.76282,-0.0956,1.31927,9.71704,0.00138,0.0043,-0.04879,0.043,40.985,-46.099,0.366,-7.695,0.372,5.0,65.6106,23.000013,120.21947,42.651,NaN,0.0,32.0,184.568,0 / 0,42410,2021-03-23 20:22:08:228
-0.28022,1.35526,9.88257,-0.13008,1.31422,9.71732,-0.00174,9.0E-4,-0.04137,-0.384,41.209,-46.16,0.554,-7.731,0.564,5.0,65.6106,23.000013,120.21947,42.651,NaN,0.0,32.0,184.568,0 / 0,42511,2021-03-23 20:22:08:329
-0.36884,1.31454,9.71492,-0.18235,1.31369,9.71655,1.8E-4,-0.00144,-0.02951,-0.42,40.655,-45.907,0.931,-7.701,0.947,5.0,65.6106,23.000013,120.21947,42.651,NaN,0.0,32.0,184.568,0 / 0,42613,2021-03-23 20:22:08:431
-0.22035,1.21395,9.42751,-0.22091,1.31926,9.715,-5.4E-4,-4.1E-4,-0.02386,-1.134,40.623,-46.839,2.296,-7.698,1.075,5.0,64.5839,23.000013,120.21947,42.651,NaN,0.0,32.0,184.568,0 / 0,42711,2021-03-23 20:22:08:529
-0.1964,1.28819,9.66702,-0.23305,1.31688,9.71503,-0.00457,0.00289,-0.009,-1.608,42.667,-47.428,3.657,-7.717,1.374,5.0,64.5839,23.000013,120.21947,42.651,NaN,0.0,32.0,184.568,0 / 0,42812,2021-03-23 20:22:08:630
-0.37363,1.28819,9.91371,-0.25898,1.30322,9.71622,-0.00482,0.00683,-0.00179,-0.874,41.506,-46.744,2.541,-7.717,1.374,5.0,64.5839,23.000013,120.21947,42.651,NaN,0.0,32.0,184.568,0 / 0,42911,2021-03-23 20:22:08:729
-0.42393,1.21155,9.73887,-0.29239,1.28506,9.71769,-0.00253,0.00763,0.01188,0.088,42.294,-48.919,1.756,-7.53,1.723,5.0,62.1746,23.000013,120.21947,42.651,NaN,0.0,32.0,184.568,0 / 0,43011,2021-03-23 20:22:08:829
-0.32094,1.15407,9.63828,-0.30444,1.273,9.71891,-0.00169,0.00774,0.01697,0.088,42.294,-48.919,1.756,-7.53,1.723,5.0,62.1746,23.000013,120.21947,42.651,NaN,0.0,32.0,184.568,0 / 0,43110,2021-03-23 20:22:08:928
-0.29939,1.14209,9.69576,-0.32229,1.25781,9.72031,-0.00222,0.00505,0.02394,-1.577,42.243,-48.595,4.266,-7.407,1.846,5.0,62.1746,23.000013,120.21947,42.651,NaN,0.0,32.0,184.568,0 / 0,43211,2021-03-23 20:22:09:029
-0.59638,1.26424,9.78677,-0.3308,1.23487,9.72297,-0.00389,0.00715,0.02767,-0.934,42.348,-48.062,3.101,-7.369,1.899,5.0,62.1746,23.000013,120.21947,42.651,NaN,0.0,32.0,184.568,0 / 0,43316,2021-03-23 20:22:09:134
-0.33052,1.19718,9.79635,-0.35443,1.22969,9.72279,-0.00893,-0.00447,0.04435,-1.053,42.343,-50.201,3.368,-7.203,2.088,5.0,62.6447,23.000013,120.21947,42.651,NaN,0.0,32.0,184.568,0 / 0,43411,2021-03-23 20:22:09:229
-0.34489,1.07503,9.576,-0.37059,1.20817,9.72488,-0.00822,-9.3E-4,0.04956,-1.1,42.026,-49.338,3.333,-7.203,2.088,5.0,62.6447,23.000013,120.21947,42.651,NaN,0.0,32.0,184.568,0 / 0,43511,2021-03-23 20:22:09:329
-0.23711,1.05348,9.61432,-0.37032,1.18491,9.72776,-0.00813,-0.00597,0.06076,-0.267,41.147,-49.162,2.328,-7.009,2.219,5.0,62.6447,23.000013,120.21947,42.651,NaN,0.0,32.0,184.568,0 / 0,43611,2021-03-23 20:22:09:429
-0.35208,1.17084,9.83946,-0.35579,1.17668,9.7293,-0.01013,0.00302,0.06619,-0.744,42.214,-51.587,3.552,-6.94,2.18,5.0,62.6391,23.000013,120.21947,42.651,NaN,0.0,32.0,184.568,0 / 0,43711,2021-03-23 20:22:09:529
-0.40716,1.16844,9.69336,-0.35225,1.15123,9.73247,-0.0095,0.0173,0.07849,-1.342,42.154,-51.787,3.451,-6.803,2.079,5.0,62.6391,23.000013,120.21947,42.651,NaN,0.0,32.0,184.568,0 / 0,43811,2021-03-23 20:22:09:629
-0.60835,1.04869,9.68857,-0.36495,1.13519,9.73389,-0.00896,0.02105,0.08139,-0.102,42.388,-50.96,2.215,-6.742,2.073,5.0,62.6391,23.000013,120.21947,42.651,NaN,0.0,32.0,184.568,0 / 0,43910,2021-03-23 20:22:09:728
-0.68739,0.91935,9.72689,-0.40106,1.12226,9.73397,-0.0045,0.01729,0.09761,0.463,42.544,-51.013,2.476,-6.571,2.359,5.0,62.1716,23.000013,120.21947,42.651,NaN,0.0,32.0,184.568,0 / 0,44011,2021-03-23 20:22:09:829
-0.51255,0.99599,9.90892,-0.4717,1.09548,9.73385,-0.00232,0.01017,0.10771,1.101,41.698,-52.2,1.372,-6.571,2.359,5.0,62.1716,23.000013,120.21947,42.651,NaN,0.0,32.0,184.568,0 / 0,44111,2021-03-23 20:22:09:929
-0.40477,1.10617,9.98077,-0.47812,1.08251,9.73499,0.00286,-5.8E-4,0.11506,1.193,42.465,-52.304,1.902,-6.372,2.84,5.0,62.1716,23.000013,120.21947,42.651,NaN,0.0,32.0,184.568,0 / 0,44210,2021-03-23 20:22:10:028
-0.40237,0.9433,9.6263,-0.46002,1.07854,9.7363,0.00579,-0.00523,0.11519,1.339,43.801,-54.331,1.902,-6.338,2.812,5.0,61.1246,23.000013,120.21947,42.651,NaN,0.0,32.0,184.568,0 / 0,44311,2021-03-23 20:22:10:129
-0.25148,0.92414,9.59995,-0.43214,1.07396,9.73808,0.00606,-0.00361,0.12038,1.652,43.723,-53.03,0.508,-6.308,2.636,5.0,61.1246,23.000013,120.21947,42.651,NaN,0.0,32.0,184.568,0 / 0,44412,2021-03-23 20:22:10:230
-0.12933,1.03192,9.69576,-0.38263,1.07255,9.74031,0.00325,0.00414,0.12177,1.158,42.441,-51.646,1.577,-6.287,2.541,5.0,61.1246,23.000013,120.21947,42.651,NaN,0.0,32.0,184.568,0 / 0,44511,2021-03-23 20:22:10:329
-0.2419,1.13251,9.81312,-0.35348,1.07323,9.74134,6.0E-5,0.01889,0.11608,0.508,44.24,-53.552,1.106,-6.283,2.078,5.0,61.1246,23.000013,120.21947,42.651,NaN,0.0,32.0,184.568,0 / 0,44611,2021-03-23 20:22:10:429
-0.37842,0.8978,9.6287,-0.33046,1.07303,9.74217,0.00102,0.02479,0.11489,1.745,44.0,-52.77,359.911,-6.283,2.078,5.0,61.9592,23.000013,120.21947,42.651,NaN,0.0,32.0,184.568,0 / 0,44711,2021-03-23 20:22:10:529
-0.48141,1.05348,9.84186,-0.36088,1.06152,9.74235,0.00321,0.02408,0.12007,2.682,44.313,-52.584,358.703,-6.235,2.03,5.0,61.9592,23.000013,120.21947,42.651,NaN,0.0,32.0,184.568,0 / 0,44811,2021-03-23 20:22:10:629
-0.49578,1.08461,9.7245,-0.37225,1.06181,9.74189,0.0028,0.01941,0.11906,2.967,44.229,-51.556,358.755,-6.214,2.121,5.0,61.9592,23.000013,120.21947,42.651,NaN,0.0,32.0,184.568,0 / 0,44911,2021-03-23 20:22:10:729
-0.23951,0.98402,9.71492,-0.38899,1.06671,9.7407,-8.4E-4,0.00828,0.11463,1.77,44.664,-53.64,0.152,-6.226,2.263,5.0,62.3467,23.000013,120.21947,42.651,NaN,0.0,32.0,184.568,0 / 0,45011,2021-03-23 20:22:10:829
-0.194,1.02234,9.81312,-0.36957,1.06497,9.74165,-0.00498,0.01122,0.11479,2.46,44.07,-53.129,0.135,-6.245,2.287,5.0,62.3467,23.000013,120.21947,42.651,NaN,0.0,32.0,184.568,0 / 0,45111,2021-03-23 20:22:10:929
-0.33292,1.00797,9.54966,-0.35341,1.06712,9.74201,-0.007,0.01222,0.10906,3.628,43.834,-51.138,357.505,-6.247,2.078,5.0,62.3467,23.000013,120.21947,42.651,NaN,0.0,32.0,184.568,0 / 0,45210,2021-03-23 20:22:11:028
-0.50536,0.99839,9.72689,-0.3501,1.05809,9.74311,-0.0084,0.00913,0.10493,2.956,44.134,-51.368,358.665,-6.247,2.078,5.0,63.7323,23.000013,120.21947,42.651,NaN,0.0,32.0,184.568,0 / 0,45310,2021-03-23 20:22:11:128
-0.46704,1.00318,9.80833,-0.37612,1.04169,9.74391,-0.00415,-0.00691,0.10226,5.402,44.915,-51.841,356.558,-6.135,2.171,5.0,63.7323,23.000013,120.21947,42.651,NaN,0.0,32.0,184.568,0 / 0,45410,2021-03-23 20:22:11:228
-0.03353,1.09898,9.96401,-0.36726,1.03008,9.74548,-3.8E-4,-0.00742,0.10404,3.925,43.838,-50.213,357.587,-6.098,2.211,5.0,63.7323,23.000013,120.21947,42.651,NaN,0.0,32.0,184.568,0 / 0,45511,2021-03-23 20:22:11:329
0.0479,0.93851,9.79875,-0.29748,1.03537,9.7473,7.7E-4,0.00278,0.09406,5.85,43.477,-49.317,354.904,-6.071,2.011,5.0,62.2184,23.000013,120.21947,42.651,NaN,0.0,32.0,184.568,0 / 0,45611,2021-03-23 20:22:11:429
-0.30418,1.02953,9.50894,-0.24186,1.03483,9.7489,0.00107,0.00734,0.08433,5.735,45.148,-50.811,354.939,-6.06,1.748,5.0,62.2184,23.000013,120.21947,42.651,NaN,0.0,32.0,184.568,0 / 0,45711,2021-03-23 20:22:11:529
-0.29699,0.96486,9.6742,-0.2428,1.03493,9.74887,-0.00865,0.00777,0.08049,5.182,43.659,-48.68,355.585,-6.058,1.427,5.0,62.2184,23.000013,120.21947,42.651,NaN,0.0,32.0,184.568,0 / 0,45811,2021-03-23 20:22:11:629
-0.33292,1.01755,9.87539,-0.24876,1.02814,9.74943,-0.01121,0.00272,0.07601,5.814,43.217,-47.749,354.267,-6.058,1.427,5.0,62.2184,23.000013,120.21947,42.651,NaN,0.0,32.0,184.568,0 / 0,45911,2021-03-23 20:22:11:729
-0.21556,0.8978,9.64067,-0.24336,1.00613,9.75187,-0.00653,-0.00148,0.07085,5.172,44.18,-47.928,355.571,-5.938,1.46,5.0,62.4591,23.000013,120.21947,42.651,NaN,0.0,32.0,184.568,0 / 0,46011,2021-03-23 20:22:11:829
-0.388,0.8978,9.65983,-0.23486,0.99244,9.75348,-0.00448,0.00787,0.07294,5.671,43.804,-47.23,354.33,-5.889,1.43,5.0,62.4591,23.000013,120.21947,42.651,NaN,0.0,32.0,184.568,0 / 0,46110,2021-03-23 20:22:11:928
-0.4886,1.0439,9.32931,-0.24719,0.98841,9.75358,-0.00652,0.00132,0.07457,7.09,44.429,-45.677,353.047,-5.761,1.363,5.0,62.4591,23.000013,120.21947,42.651,NaN,0.0,32.0,184.568,0 / 0,46211,2021-03-23 20:22:12:029
-0.20358,0.97683,9.97838,-0.27775,0.99515,9.75207,-0.01631,0.00165,0.07311,6.326,44.902,-46.401,354.415,-5.785,1.452,5.0,62.0131,23.000013,120.21947,42.651,NaN,0.0,32.0,184.568,0 / 0,46311,2021-03-23 20:22:12:129
-0.00479,0.96965,9.95682,-0.27783,0.9762,9.75399,-0.01483,-0.0105,0.06973,7.909,45.076,-44.995,352.239,-5.713,1.632,5.0,62.0131,23.000013,120.21947,42.651,NaN,0.0,32.0,184.568,0 / 0,46411,2021-03-23 20:22:12:229
0.05509,1.05587,9.63349,-0.20972,0.9496,9.75831,-0.00673,-7.0E-4,0.06223,6.975,43.777,-45.207,353.248,-5.713,1.632,5.0,62.0131,23.000013,120.21947,42.651,NaN,0.0,32.0,184.568,0 / 0,46511,2021-03-23 20:22:12:329
0.07185,0.87145,9.78677,-0.15382,0.95339,9.75898,-0.01136,0.01147,0.0475,7.782,44.106,-43.688,351.49,-5.571,1.048,5.0,62.9776,23.000013,120.21947,42.651,NaN,0.0,32.0,184.568,0 / 0,46612,2021-03-23 20:22:12:430
-0.12215,0.88103,9.92808,-0.13135,0.94461,9.76017,-0.01205,0.01252,0.0394,9.31,44.923,-44.537,350.431,-5.579,0.903,5.0,62.9776,23.000013,120.21947,42.651,NaN,0.0,32.0,184.568,0 / 0,46711,2021-03-23 20:22:12:529
-0.2443,0.92893,9.86581,-0.13392,0.91885,9.76259,-0.00281,-0.0037,0.02267,8.005,44.411,-41.381,351.11,-5.444,0.752,5.0,62.9776,23.000013,120.21947,42.651,NaN,0.0,32.0,184.568,0 / 0,46811,2021-03-23 20:22:12:629
-0.17245,0.82594,9.88976,-0.14905,0.89583,9.76451,9.0E-4,-0.01187,0.02082,9.854,44.261,-40.859,348.8,-5.376,0.786,5.0,62.0439,23.000013,120.21947,42.651,NaN,0.0,32.0,184.568,0 / 0,46911,2021-03-23 20:22:12:729
-0.01198,0.78044,9.66941,-0.14857,0.88402,9.76559,0.00213,-0.01883,0.02176,8.949,43.066,-40.171,349.759,-5.172,0.872,5.0,62.0439,23.000013,120.21947,42.651,NaN,0.0,32.0,184.568,0 / 0,47011,2021-03-23 20:22:12:829
-0.00719,0.70379,9.67899,-0.11714,0.86998,9.76728,0.00216,-0.01092,0.01926,8.981,44.673,-39.086,350.137,-5.172,0.872,5.0,62.0439,23.000013,120.21947,42.651,NaN,0.0,32.0,184.568,0 / 0,47110,2021-03-23 20:22:12:928
-0.25867,0.78283,9.76761,-0.09051,0.85022,9.7693,0.00561,0.00344,0.01905,7.682,45.285,-39.563,351.055,-5.018,0.562,5.0,62.0439,23.000013,120.21947,42.651,NaN,0.0,32.0,184.568,0 / 0,47211,2021-03-23 20:22:13:029
-0.40237,0.85708,9.55205,-0.10128,0.84521,9.76963,0.00288,0.01045,0.02167,7.295,44.639,-38.201,352.136,-4.974,0.531,5.0,61.6641,23.000013,120.21947,42.651,NaN,0.0,32.0,184.568,0 / 0,47311,2021-03-23 20:22:13:129
-0.3401,0.7996,9.65265,-0.15871,0.84057,9.76927,-0.00338,-0.00671,0.02508,9.139,44.777,-36.655,349.935,-4.912,0.739,5.0,61.6641,23.000013,120.21947,42.651,NaN,0.0,32.0,184.568,0 / 0,47410,2021-03-23 20:22:13:228
-0.12694,0.80918,9.85862,-0.18608,0.8397,9.76886,-0.00912,-0.01494,0.02562,9.233,47.5,-36.74,350.468,-4.917,0.931,5.0,61.6641,23.000013,120.21947,42.651,NaN,0.0,32.0,184.568,0 / 0,47511,2021-03-23 20:22:13:329
0.00718,0.90498,9.83707,-0.17062,0.83179,9.76982,0.00567,-0.01079,0.02447,10.441,45.69,-35.837,349.153,-4.866,1.0,5.0,61.8328,23.000013,120.21947,42.651,NaN,0.0,32.0,184.568,0 / 0,47611,2021-03-23 20:22:13:429
0.0958,0.83552,9.75324,-0.12831,0.83218,9.77044,0.00955,3.6E-4,0.02399,9.928,45.204,-35.361,348.894,-4.866,1.0,5.0,61.8328,23.000013,120.21947,42.651,NaN,0.0,32.0,184.568,0 / 0,47710,2021-03-23 20:22:13:528
-0.03593,0.75409,9.5784,-0.10423,0.84294,9.7698,2.2E-4,0.00527,0.0209,11.248,45.154,-35.598,347.534,-4.901,0.645,5.0,61.8328,23.000013,120.21947,42.651,NaN,0.0,32.0,184.568,0 / 0,47810,2021-03-23 20:22:13:628
-0.04072,0.72296,9.80114,-0.09948,0.84503,9.76967,0.00221,0.00373,0.01747,11.867,45.747,-35.607,346.647,-4.931,0.611,5.0,59.6677,23.000013,120.21947,42.651,NaN,0.0,32.0,184.568,0 / 0,47911,2021-03-23 20:22:13:729
-0.15568,0.92414,9.81312,-0.09267,0.84232,9.76997,0.00266,0.00215,0.00977,11.374,45.92,-34.156,347.669,-4.965,0.567,5.0,59.6677,23.000013,120.21947,42.651,NaN,0.0,32.0,184.568,0 / 0,48011,2021-03-23 20:22:13:829
-0.30897,0.77565,9.64546,-0.09862,0.84606,9.76959,-0.0039,3.0E-5,0.00903,10.965,45.219,-34.595,347.432,-4.927,0.543,5.0,59.6677,23.000013,120.21947,42.651,NaN,0.0,32.0,184.568,0 / 0,48110,2021-03-23 20:22:13:928
-0.35208,0.61518,9.9664,-0.11554,0.84032,9.7699,-0.00245,-0.00827,0.0107,11.698,44.999,-33.59,346.352,-4.916,0.678,5.0,63.8948,23.000013,120.21947,42.651,NaN,0.0,32.0,184.568,0 / 0,48211,2021-03-23 20:22:14:029
-0.36645,0.79241,9.81791,-0.14705,0.81096,9.77195,9.8E-4,-0.01311,0.01558,10.398,42.946,-34.295,348.156,-4.916,0.678,5.0,63.8948,23.000013,120.21947,42.651,NaN,0.0,32.0,184.568,0 / 0,48311,2021-03-23 20:22:14:129
0.00479,0.91217,9.78198,-0.14845,0.80336,9.77256,-0.00836,-0.01565,0.02166,12.118,43.397,-32.242,345.84,-4.685,0.935,5.0,63.8948,23.000013,120.21947,42.651,NaN,0.0,32.0,184.568,0 / 0,48411,2021-03-23 20:22:14:229
0.05748,0.72775,9.76043,-0.12438,0.8085,9.77247,-0.01464,-0.0106,0.02095,12.273,43.677,-34.121,346.173,-4.699,0.87,5.0,63.8948,23.000013,120.21947,42.651,NaN,0.0,32.0,184.568,0 / 0,48511,2021-03-23 20:22:14:329
-0.194,0.58883,9.73168,-0.08574,0.77904,9.77528,-0.0115,-0.00132,0.01847,12.808,42.062,-33.448,344.13,-4.67,0.576,5.0,64.7953,23.000013,120.21947,42.651,NaN,0.0,32.0,184.568,0 / 0,48611,2021-03-23 20:22:14:429
-0.39519,0.67026,9.80354,-0.116,0.75328,9.77699,-0.00543,0.00857,0.02544,12.115,41.781,-32.294,345.22,-4.556,0.503,5.0,64.7953,23.000013,120.21947,42.651,NaN,0.0,32.0,184.568,0 / 0,48711,2021-03-23 20:22:14:529
-0.1461,0.83073,9.83946,-0.14163,0.74618,9.7772,0.00303,-0.00132,0.03206,11.329,40.723,-31.084,346.292,-4.364,0.83,5.0,64.7953,23.000013,120.21947,42.651,NaN,0.0,32.0,184.568,0 / 0,48810,2021-03-23 20:22:14:628
0.0982,0.699,9.7748,-0.14018,0.75563,9.77649,0.00242,-0.00465,0.02864,11.491,40.249,-32.393,346.024,-4.364,0.83,5.0,61.7578,23.000013,120.21947,42.651,NaN,0.0,32.0,184.568,0 / 0,48911,2021-03-23 20:22:14:729
0.03832,0.60799,9.88257,-0.09292,0.74795,9.77764,0.00731,0.00507,0.02605,11.922,40.816,-30.284,344.917,-4.407,0.683,5.0,61.7578,23.000013,120.21947,42.651,NaN,0.0,32.0,184.568,0 / 0,49011,2021-03-23 20:22:14:829
-0.01677,0.7996,9.71731,-0.07709,0.74385,9.77809,0.00867,0.00819,0.0237,9.608,39.686,-31.264,347.065,-4.374,0.544,5.0,61.7578,23.000013,120.21947,42.651,NaN,0.0,32.0,184.568,0 / 0,49110,2021-03-23 20:22:14:928
-0.1461,0.87624,9.69815,-0.07422,0.76039,9.77684,0.00267,0.00335,0.01531,7.882,39.513,-30.702,349.573,-4.382,0.413,5.0,62.9605,23.000013,120.21947,42.651,NaN,0.0,32.0,184.568,0 / 0,49211,2021-03-23 20:22:15:029
0.02395,0.75649,9.80593,-0.0787,0.77447,9.7757,-0.00506,0.00155,0.01397,8.164,38.961,-30.718,349.35,-4.447,0.435,5.0,62.9605,23.000013,120.21947,42.651,NaN,0.0,32.0,184.568,0 / 0,49311,2021-03-23 20:22:15:129
-0.17005,0.69661,9.80114,-0.07595,0.76642,9.77636,0.00607,-0.01479,0.01115,8.089,39.687,-32.234,349.636,-4.482,0.445,5.0,62.9605,23.000013,120.21947,42.651,NaN,0.0,32.0,184.568,0 / 0,49412,2021-03-23 20:22:15:230
-0.18682,0.73493,9.89934,-0.06938,0.75946,9.77695,0.00955,-0.01145,0.00669,8.028,41.827,-33.749,350.142,-4.389,0.455,5.0,63.0154,23.000013,120.21947,42.651,NaN,0.0,32.0,184.568,0 / 0,49511,2021-03-23 20:22:15:329
0.13652,0.96007,9.64546,-0.05384,0.76113,9.77692,6.0E-4,-0.02019,0.0078,6.435,40.839,-32.723,352.426,-4.441,0.389,5.0,63.0154,23.000013,120.21947,42.651,NaN,0.0,32.0,184.568,0 / 0,49611,2021-03-23 20:22:15:429
0.25627,0.80678,9.6766,-0.02129,0.77188,9.7762,0.00134,0.001,0.0057,5.921,39.625,-33.429,352.194,-4.451,0.316,5.0,63.0154,23.000013,120.21947,42.651,NaN,0.0,32.0,184.568,0 / 0,49711,2021-03-23 20:22:15:529
0.07904,0.67505,9.86581,0.04314,0.77493,9.77589,0.00158,0.02953,-0.00159,4.726,40.322,-34.897,353.218,-4.536,-0.117,5.0,63.0154,23.000013,120.21947,42.651,NaN,0.0,32.0,184.568,0 / 0,49811,2021-03-23 20:22:15:629
-0.29939,0.68942,9.65025,0.02223,0.77992,9.77556,0.00283,0.02807,-0.01023,4.139,40.268,-36.153,354.44,-4.532,-0.253,5.0,62.5088,23.000013,120.21947,42.651,NaN,0.0,32.0,184.568,0 / 0,49910,2021-03-23 20:22:15:728
-0.30657,1.03192,9.74606,-0.02529,0.78357,9.77526,3.0E-5,0.00795,-0.00701,4.133,39.793,-37.486,354.791,-4.583,0.148,5.0,62.5088,23.000013,120.21947,42.651,NaN,0.0,32.0,184.568,0 / 0,50011,2021-03-23 20:22:15:829
-0.27064,0.82115,9.62391,-0.09003,0.79974,9.77357,-0.00334,-0.00913,-0.00496,1.313,38.983,-35.76,358.943,-4.587,0.366,5.0,62.5088,23.000013,120.21947,42.651,NaN,0.0,32.0,184.568,0 / 0,50111,2021-03-23 20:22:15:929
0.01677,0.66068,9.71013,-0.09372,0.8069,9.77295,-0.01663,-0.01426,-0.00279,1.404,39.402,-37.313,359.167,-4.729,0.605,5.0,62.1552,23.000013,120.21947,42.651,NaN,0.0,32.0,184.568,0 / 0,50210,2021-03-23 20:22:16:028
0.17245,0.50979,9.81551,-0.07307,0.78948,9.77455,-0.01495,-0.01087,-0.00116,1.477,40.064,-37.693,359.153,-4.72,0.549,5.0,62.1552,23.000013,120.21947,42.651,NaN,0.0,32.0,184.568,0 / 0,50311,2021-03-23 20:22:16:129
-0.03114,0.72056,9.98077,-0.02595,0.7611,9.77704,-0.013,0.00118,-0.00813,0.224,40.214,-39.068,0.265,-4.544,0.292,5.0,62.1552,23.000013,120.21947,42.651,NaN,0.0,32.0,184.568,0 / 0,50411,2021-03-23 20:22:16:229
-0.13412,0.72296,10.03586,-0.03317,0.7372,9.77885,-0.00727,0.00568,-0.00749,-0.114,40.968,-41.569,0.145,-4.451,0.152,5.0,61.3383,23.000013,120.21947,42.651,NaN,0.0,32.0,184.568,0 / 0,50511,2021-03-23 20:22:16:329
-0.26346,0.7493,9.576,-0.04802,0.72385,9.77978,0.00757,-0.00537,-0.00305,0.47,42.259,-40.706,0.257,-4.233,0.281,5.0,61.3383,23.000013,120.21947,42.651,NaN,0.0,32.0,184.568,0 / 0,50611,2021-03-23 20:22:16:429
-0.08862,0.67505,9.60714,-0.08686,0.74021,9.77829,0.00155,-0.01964,-0.00607,-0.127,42.868,-39.201,0.322,-4.255,0.378,5.0,61.3383,23.000013,120.21947,42.651,NaN,0.0,32.0,184.568,0 / 0,50711,2021-03-23 20:22:16:529
0.02635,0.70858,9.94006,-0.07486,0.73678,9.77865,-0.00552,-0.02393,-3.3E-4,-0.273,43.466,-38.772,0.469,-4.342,0.551,5.0,61.9465,23.000013,120.21947,42.651,NaN,0.0,32.0,184.568,0 / 0,50815,2021-03-23 20:22:16:633
0.23951,0.81876,9.79875,-0.05458,0.725,9.77966,-0.00176,-0.02439,-3.7E-4,-0.616,44.496,-39.068,1.589,-4.309,0.439,5.0,61.9465,23.000013,120.21947,42.651,NaN,0.0,32.0,184.568,0 / 0,50911,2021-03-23 20:22:16:729
0.09341,0.79002,9.54247,0.00622,0.72259,9.77999,0.00107,0.00569,-1.6E-4,1.353,45.843,-38.643,358.925,-4.192,0.126,5.0,61.9465,23.000013,120.21947,42.651,NaN,0.0,32.0,184.568,0 / 0,51011,2021-03-23 20:22:16:829
0.13891,0.59362,9.69097,0.03036,0.73102,9.77932,-0.0029,0.00992,0.00243,-0.109,47.463,-39.616,359.971,-4.226,-0.036,5.0,61.9465,23.000013,120.21947,42.651,NaN,0.0,32.0,184.568,0 / 0,51111,2021-03-23 20:22:16:929
-0.05988,0.63194,9.9688,0.02591,0.73194,9.77926,-7.0E-5,0.01691,-0.00679,1.102,46.273,-36.357,358.708,-4.28,-0.152,5.0,62.2371,23.000013,120.21947,42.651,NaN,0.0,32.0,184.568,0 / 0,51211,2021-03-23 20:22:17:029
-0.19161,0.59362,9.59756,-0.01914,0.70361,9.78136,0.00439,0.00947,-0.00563,1.56,45.459,-34.509,357.477,-4.28,-0.152,5.0,62.2371,23.000013,120.21947,42.651,NaN,0.0,32.0,184.568,0 / 0,51311,2021-03-23 20:22:17:129
-0.05509,0.59123,9.83228,-0.05901,0.69661,9.7817,0.02529,-0.00498,-0.0043,0.175,46.408,-35.296,0.177,-4.113,0.245,5.0,62.2371,23.000013,120.21947,42.651,NaN,0.0,32.0,184.568,0 / 0,51411,2021-03-23 20:22:17:229
0.02156,0.92893,9.78438,-0.05555,0.6999,9.78148,0.03006,2.7E-4,-0.00597,0.02,48.5,-36.883,0.253,-4.073,0.346,5.0,60.6214,23.000013,120.21947,42.651,NaN,0.0,32.0,184.568,0 / 0,51510,2021-03-23 20:22:17:328
0.12694,0.89301,9.60235,-0.0396,0.74368,9.77833,0.01548,0.01156,-0.0022,1.076,47.867,-34.279,359.072,-4.204,0.31,5.0,60.6214,23.000013,120.21947,42.651,NaN,0.0,32.0,184.568,0 / 0,51611,2021-03-23 20:22:17:429
-0.17724,0.94809,9.74366,-0.03012,0.78831,9.77487,0.0049,0.02016,-0.0052,1.463,47.191,-34.449,359.001,-4.349,0.232,5.0,60.6214,23.000013,120.21947,42.651,NaN,0.0,32.0,184.568,0 / 0,51711,2021-03-23 20:22:17:529
-0.37124,0.72296,9.70534,-0.05301,0.79589,9.77416,-0.00473,0.00306,-0.00395,1.879,47.77,-34.911,357.955,-4.655,0.311,5.0,65.5094,23.000013,120.21947,42.651,NaN,0.0,32.0,184.568,0 / 0,51811,2021-03-23 20:22:17:629
-0.37124,0.65589,9.70773,-0.12255,0.79384,9.7737,-0.00658,-0.00536,9.9E-4,1.9,48.255,-34.078,358.089,-4.674,0.524,5.0,65.5094,23.000013,120.21947,42.651,NaN,0.0,32.0,184.568,0 / 0,51910,2021-03-23 20:22:17:728
-0.0024,0.72775,9.71971,-0.15166,0.78749,9.7738,0.0091,-0.03036,8.1E-4,0.602,46.768,-35.797,359.473,-4.597,0.863,5.0,65.5094,23.000013,120.21947,42.651,NaN,0.0,32.0,184.568,0 / 0,52011,2021-03-23 20:22:17:829
0.16047,0.96486,9.68857,-0.12811,0.79094,9.77386,0.00906,-0.02659,0.0025,2.999,48.119,-36.394,357.246,-4.606,0.889,5.0,65.7227,23.000013,120.21947,42.651,NaN,0.0,32.0,184.568,0 / 0,52111,2021-03-23 20:22:17:929
0.17724,0.81397,10.04305,-0.04858,0.82775,9.77153,-0.00908,-0.00115,0.00111,1.418,47.901,-37.881,359.268,-4.742,0.526,5.0,65.7227,23.000013,120.21947,42.651,NaN,0.0,32.0,184.568,0 / 0,52210,2021-03-23 20:22:18:028
0.09101,0.699,10.05502,-0.01022,0.80614,9.77346,-0.00555,0.00511,-0.00309,1.461,47.092,-38.413,359.071,-4.842,0.285,5.0,65.7227,23.000013,120.21947,42.651,NaN,0.0,32.0,184.568,0 / 0,52310,2021-03-23 20:22:18:128
-0.26585,0.80918,9.68139,-0.00779,0.78674,9.77504,0.00798,0.01324,-9.2E-4,0.164,47.205,-37.248,0.034,-4.601,0.046,5.0,65.7227,23.000013,120.21947,42.651,NaN,0.0,32.0,184.568,0 / 0,52411,2021-03-23 20:22:18:229
-0.18203,0.83313,9.76761,-0.0425,0.80238,9.77368,9.5E-4,0.00903,-4.3E-4,0.603,48.99,-38.442,359.0,-4.627,0.142,5.0,65.3345,23.000013,120.21947,42.651,NaN,0.0,32.0,184.568,0 / 0,52511,2021-03-23 20:22:18:329
-0.23472,0.70858,9.70055,-0.07824,0.80012,9.77364,-0.00611,-0.01151,4.1E-4,2.006,47.154,-38.781,357.975,-4.686,0.339,5.0,65.3345,23.000013,120.21947,42.651,NaN,0.0,32.0,184.568,0 / 0,52611,2021-03-23 20:22:18:429
0.02874,0.58883,9.94724,-0.09442,0.79253,9.77412,-0.00559,-0.01428,0.00332,0.735,45.782,-37.168,359.175,-4.68,0.459,5.0,65.3345,23.000013,120.21947,42.651,NaN,0.0,32.0,184.568,0 / 0,52711,2021-03-23 20:22:18:529
0.16047,0.79241,9.92808,-0.07637,0.75835,9.77699,-0.00255,-0.01572,0.00569,0.983,46.68,-37.572,359.267,-4.539,0.546,5.0,63.3828,23.000013,120.21947,42.651,NaN,0.0,32.0,184.568,0 / 0,52811,2021-03-23 20:22:18:629
0.1461,0.88103,9.54966,-0.01782,0.75334,9.77766,-0.00228,-0.00438,0.00355,-0.352,47.573,-35.767,0.318,-4.435,0.448,5.0,63.3828,23.000013,120.21947,42.651,NaN,0.0,32.0,184.568,0 / 0,52911,2021-03-23 20:22:18:729
0.05509,0.7517,9.53529,0.00155,0.76068,9.7771,-0.00275,0.01964,0.00218,-0.386,46.286,-34.052,359.994,-4.449,-0.009,5.0,63.3828,23.000013,120.21947,42.651,NaN,0.0,32.0,184.568,0 / 0,53011,2021-03-23 20:22:18:829
-0.35926,0.6511,9.76522,-7.7E-4,0.75943,9.7772,-0.00119,0.01975,-0.00198,-0.916,48.734,-36.551,1.055,-4.42,-0.074,5.0,62.1937,23.000013,120.21947,42.651,NaN,0.0,32.0,184.568,0 / 0,53111,2021-03-23 20:22:18:929
-0.21316,0.78044,9.7724,-0.08085,0.76534,9.77641,0.00141,-0.00156,-3.1E-4,-1.558,48.035,-33.776,2.413,-4.463,0.216,5.0,62.1937,23.000013,120.21947,42.651,NaN,0.0,32.0,184.568,0 / 0,53211,2021-03-23 20:22:19:029
-0.10299,0.88582,9.93766,-0.09642,0.77316,9.77565,0.00179,-0.00263,0.00316,-1.099,48.114,-32.793,1.446,-4.476,0.474,5.0,62.1937,23.000013,120.21947,42.651,NaN,0.0,32.0,184.568,0 / 0,53311,2021-03-23 20:22:19:129
0.0503,0.83073,9.87539,-0.08583,0.7811,9.77512,1.4E-4,-0.0118,8.4E-4,-3.392,47.107,-31.054,3.825,-4.545,0.549,5.0,60.4302,23.000013,120.21947,42.651,NaN,0.0,32.0,184.568,0 / 0,53410,2021-03-23 20:22:19:228
0.00239,0.76367,9.64067,-0.05363,0.78745,9.77484,0.00463,-6.0E-5,8.8E-4,-4.283,46.297,-29.645,5.05,-4.568,0.503,5.0,60.4302,23.000013,120.21947,42.651,NaN,0.0,32.0,184.568,0 / 0,53511,2021-03-23 20:22:19:329
-0.09101,0.8475,9.55684,-0.04301,0.79548,9.77424,-0.00175,0.0074,9.5E-4,-3.506,47.246,-30.704,4.79,-4.653,0.252,5.0,60.4302,23.000013,120.21947,42.651,NaN,0.0,32.0,184.568,0 / 0,53610,2021-03-23 20:22:19:428
-0.34729,0.89301,9.84186,-0.05433,0.80763,9.77319,-0.01086,0.00688,-5.5E-4,-4.669,47.58,-31.384,5.841,-4.722,0.285,5.0,60.4302,23.000013,120.21947,42.651,NaN,0.0,32.0,184.568,0 / 0,53710,2021-03-23 20:22:19:528
-0.25627,0.92654,9.74845,-0.09638,0.80013,9.77348,-0.00798,-0.00341,0.00396,-2.052,48.325,-29.381,2.528,-4.68,0.429,5.0,60.9151,23.000013,120.21947,42.651,NaN,0.0,32.0,184.568,0 / 0,53811,2021-03-23 20:22:19:629
-0.12694,0.81397,9.71252,-0.10675,0.79606,9.7737,-0.00722,-0.01335,0.00318,-3.509,47.233,-28.213,4.975,-4.68,0.565,5.0,60.9151,23.000013,120.21947,42.651,NaN,0.0,32.0,184.568,0 / 0,53911,2021-03-23 20:22:19:729
0.02635,0.81876,9.64067,-0.10495,0.80048,9.77336,-0.00542,-0.01552,-2.2E-4,-5.109,47.62,-27.57,6.065,-4.657,0.665,5.0,60.9151,23.000013,120.21947,42.651,NaN,0.0,32.0,184.568,0 / 0,54011,2021-03-23 20:22:19:829
0.07185,0.86666,9.80114,-0.06649,0.80546,9.77329,-0.01403,-0.01444,0.00361,-4.814,47.57,-28.104,6.037,-4.682,0.615,5.0,60.4454,23.000013,120.21947,42.651,NaN,0.0,32.0,184.568,0 / 0,54112,2021-03-23 20:22:19:930
-0.03114,0.75888,10.0646,-0.03985,0.80084,9.77382,-0.01635,-0.00128,-0.001,-4.277,49.704,-25.916,4.519,-4.684,0.234,5.0,60.4454,23.000013,120.21947,42.651,NaN,0.0,32.0,184.568,0 / 0,54211,2021-03-23 20:22:20:029
-0.07904,0.70619,9.55205,-0.03422,0.76729,9.77653,-0.00697,-0.00264,3.1E-4,-5.152,47.108,-27.303,5.913,-4.588,0.161,5.0,60.4454,23.000013,120.21947,42.651,NaN,0.0,32.0,184.568,0 / 0,54310,2021-03-23 20:22:20:128
0.01437,0.91217,9.28141,-0.03691,0.76016,9.77707,-0.00852,0.0041,0.00521,-4.148,48.318,-26.02,4.699,-4.444,0.218,5.0,60.4205,23.000013,120.21947,42.651,NaN,0.0,32.0,184.568,0 / 0,54411,2021-03-23 20:22:20:229
-0.13652,0.91935,9.74606,-0.03402,0.77756,9.77572,-0.01287,0.00198,-2.5E-4,-5.206,47.813,-26.873,5.832,-4.446,0.216,5.0,60.4205,23.000013,120.21947,42.651,NaN,0.0,32.0,184.568,0 / 0,54511,2021-03-23 20:22:20:329
0.0503,0.85947,9.81551,-0.0405,0.78992,9.7747,-0.01316,0.00433,0.00165,-4.495,48.339,-25.02,4.696,-4.591,0.217,5.0,60.4205,23.000013,120.21947,42.651,NaN,0.0,32.0,184.568,0 / 0,54611,2021-03-23 20:22:20:429
-0.10778,0.87385,10.01191,-0.04952,0.79241,9.77446,-0.00978,0.00962,0.0031,-5.368,47.253,-25.155,5.963,-4.62,0.237,5.0,60.2332,23.000013,120.21947,42.651,NaN,0.0,32.0,184.568,0 / 0,54711,2021-03-23 20:22:20:529
-0.07185,0.77325,9.73408,-0.05452,0.78672,9.77489,-0.00556,0.00786,-0.0019,-3.956,49.744,-26.601,4.563,-4.601,0.32,5.0,60.2332,23.000013,120.21947,42.651,NaN,0.0,32.0,184.568,0 / 0,54811,2021-03-23 20:22:20:629
-0.11017,0.7493,9.89934,-0.0693,0.7876,9.77473,-0.0078,0.00522,3.4E-4,-3.102,49.136,-26.336,3.544,-4.62,0.34,5.0,60.2332,23.000013,120.21947,42.651,NaN,0.0,32.0,184.568,0 / 0,54911,2021-03-23 20:22:20:729
-0.24669,0.71577,9.99514,-0.08429,0.78154,9.7751,0.00357,5.4E-4,-2.1E-4,-3.626,48.178,-27.576,4.825,-4.581,0.465,5.0,60.2332,23.000013,120.21947,42.651,NaN,0.0,32.0,184.568,0 / 0,55010,2021-03-23 20:22:20:828
-0.13412,0.87385,9.69815,-0.09758,0.77813,9.77524,0.01091,-0.00677,-6.2E-4,-2.892,48.866,-26.689,3.627,-4.571,0.494,5.0,58.3167,23.000013,120.21947,42.651,NaN,0.0,32.0,184.568,0 / 0,55111,2021-03-23 20:22:20:929
-0.04551,0.92175,9.77001,-0.10199,0.80416,9.77309,0.01056,-0.00855,0.00225,-1.757,49.358,-28.251,2.564,-4.627,0.591,5.0,58.3167,23.000013,120.21947,42.651,NaN,0.0,32.0,184.568,0 / 0,55210,2021-03-23 20:22:21:028
0.01677,0.88343,9.58558,-0.08089,0.82658,9.77142,0.0085,-0.00428,0.00293,-2.231,48.228,-27.985,2.618,-4.704,0.598,5.0,58.3167,23.000013,120.21947,42.651,NaN,0.0,32.0,184.568,0 / 0,55310,2021-03-23 20:22:21:128
-0.26106,0.91456,9.80833,-0.06841,0.84069,9.77031,0.01169,-0.00199,9.6E-4,-1.368,48.785,-27.876,1.338,-4.918,0.401,5.0,60.8066,23.000013,120.21947,42.651,NaN,0.0,32.0,184.568,0 / 0,55411,2021-03-23 20:22:21:229
-0.17484,1.03432,9.80114,-0.07567,0.87552,9.7672,0.00996,-0.00617,5.9E-4,-1.289,47.744,-29.565,1.363,-5.029,0.383,5.0,60.8066,23.000013,120.21947,42.651,NaN,0.0,32.0,184.568,0 / 0,55511,2021-03-23 20:22:21:329
-0.01198,1.02234,9.63828,-0.08629,0.90779,9.76416,0.01243,-0.00967,0.00104,-0.835,48.243,-29.813,1.431,-5.208,0.501,5.0,60.8066,23.000013,120.21947,42.651,NaN,0.0,32.0,184.568,0 / 0,55611,2021-03-23 20:22:21:429
0.0958,1.05108,9.46823,-0.07627,0.92826,9.76232,0.01732,-0.00719,0.00251,-1.539,49.68,-30.521,2.473,-5.311,0.506,5.0,59.5794,23.000013,120.21947,42.651,NaN,0.0,32.0,184.568,0 / 0,55712,2021-03-23 20:22:21:530
-0.11017,0.96486,9.94724,-0.0454,0.98053,9.7574,0.015,0.0024,-0.00187,-0.457,49.721,-32.377,0.192,-5.568,0.317,5.0,59.5794,23.000013,120.21947,42.651,NaN,0.0,32.0,184.568,0 / 0,55812,2021-03-23 20:22:21:630
-0.0982,0.86906,9.99275,-0.05047,0.99509,9.7559,0.01244,0.00262,-8.6E-4,0.585,50.248,-34.255,359.093,-5.738,0.267,5.0,59.5794,23.000013,120.21947,42.651,NaN,0.0,32.0,184.568,0 / 0,55911,2021-03-23 20:22:21:729
-0.18203,0.93372,9.7245,-0.05523,0.99004,9.75639,0.01255,-1.1E-4,0.00229,-0.109,51.002,-35.457,0.209,-5.794,0.324,5.0,60.0961,23.000013,120.21947,42.651,NaN,0.0,32.0,184.568,0 / 0,56010,2021-03-23 20:22:21:828
-0.03593,1.02713,9.56882,-0.07489,0.98437,9.75683,0.0139,-0.00909,8.1E-4,0.251,51.895,-37.386,0.255,-5.75,0.383,5.0,60.0961,23.000013,120.21947,42.651,NaN,0.0,32.0,184.568,0 / 0,56111,2021-03-23 20:22:21:929
0.11257,1.01037,9.78198,-0.07328,1.01207,9.75401,3.9E-4,-0.01665,0.00167,-0.577,52.851,-37.032,1.295,-5.837,0.43,5.0,60.0961,23.000013,120.21947,42.651,NaN,0.0,32.0,184.568,0 / 0,56211,2021-03-23 20:22:22:029
-0.04311,0.96486,9.74126,-0.06278,1.01365,9.75392,-0.00216,-0.01144,0.00153,0.728,52.824,-38.138,359.277,-5.924,0.43,5.0,60.0961,23.000013,120.21947,42.651,NaN,0.0,32.0,184.568,0 / 0,56311,2021-03-23 20:22:22:129
0.12215,0.86906,9.80114,-0.03434,1.0043,9.75503,-0.0083,-1.5E-4,0.00147,0.131,52.112,-37.421,0.188,-5.897,0.282,5.0,60.5894,23.000013,120.21947,42.651,NaN,0.0,32.0,184.568,0 / 0,56411,2021-03-23 20:22:22:229
-0.00479,0.8954,9.59037,-0.006,0.98664,9.75689,-0.0051,0.00436,-0.00114,0.676,52.703,-36.745,359.118,-5.878,0.202,5.0,60.5894,23.000013,120.21947,42.651,NaN,0.0,32.0,184.568,0 / 0,56511,2021-03-23 20:22:22:329
0.13652,1.03911,9.65983,-0.00612,0.97648,9.75791,-0.00529,0.02454,-0.0048,1.352,53.711,-39.035,359.03,-5.715,0.036,5.0,60.5894,23.000013,120.21947,42.651,NaN,0.0,32.0,184.568,0 / 0,56611,2021-03-23 20:22:22:429
